# 
#                 ----------------------------------------------------
#                 Data from a 3D direct N-body simulation. 
# 
#                 rows are i-particle; 
#                 coumns are :mass, tag, x ,y, z, vx, vy, vz, ax, ay, az
# 
#                 NTHU, Computational Physics 
# 
#                 ----------------------------------------------------
#                 Time = 0.0
0.000000000000000000e+00 1.000000000000000000e+00 2.000000000000000000e+00 3.000000000000000000e+00 4.000000000000000000e+00 5.000000000000000000e+00 6.000000000000000000e+00 7.000000000000000000e+00 8.000000000000000000e+00 9.000000000000000000e+00 1.000000000000000000e+01 1.100000000000000000e+01 1.200000000000000000e+01 1.300000000000000000e+01 1.400000000000000000e+01 1.500000000000000000e+01 1.600000000000000000e+01 1.700000000000000000e+01 1.800000000000000000e+01 1.900000000000000000e+01 2.000000000000000000e+01 2.100000000000000000e+01 2.200000000000000000e+01 2.300000000000000000e+01 2.400000000000000000e+01 2.500000000000000000e+01 2.600000000000000000e+01 2.700000000000000000e+01 2.800000000000000000e+01 2.900000000000000000e+01 3.000000000000000000e+01 3.100000000000000000e+01 3.200000000000000000e+01 3.300000000000000000e+01 3.400000000000000000e+01 3.500000000000000000e+01 3.600000000000000000e+01 3.700000000000000000e+01 3.800000000000000000e+01 3.900000000000000000e+01 4.000000000000000000e+01 4.100000000000000000e+01 4.200000000000000000e+01 4.300000000000000000e+01 4.400000000000000000e+01 4.500000000000000000e+01 4.600000000000000000e+01 4.700000000000000000e+01 4.800000000000000000e+01 4.900000000000000000e+01 5.000000000000000000e+01 5.100000000000000000e+01 5.200000000000000000e+01 5.300000000000000000e+01 5.400000000000000000e+01 5.500000000000000000e+01 5.600000000000000000e+01 5.700000000000000000e+01 5.800000000000000000e+01 5.900000000000000000e+01 6.000000000000000000e+01 6.100000000000000000e+01 6.200000000000000000e+01 6.300000000000000000e+01 6.400000000000000000e+01 6.500000000000000000e+01 6.600000000000000000e+01 6.700000000000000000e+01 6.800000000000000000e+01 6.900000000000000000e+01 7.000000000000000000e+01 7.100000000000000000e+01 7.200000000000000000e+01 7.300000000000000000e+01 7.400000000000000000e+01 7.500000000000000000e+01 7.600000000000000000e+01 7.700000000000000000e+01 7.800000000000000000e+01 7.900000000000000000e+01 8.000000000000000000e+01 8.100000000000000000e+01 8.200000000000000000e+01 8.300000000000000000e+01 8.400000000000000000e+01 8.500000000000000000e+01 8.600000000000000000e+01 8.700000000000000000e+01 8.800000000000000000e+01 8.900000000000000000e+01 9.000000000000000000e+01 9.100000000000000000e+01 9.200000000000000000e+01 9.300000000000000000e+01 9.400000000000000000e+01 9.500000000000000000e+01 9.600000000000000000e+01 9.700000000000000000e+01 9.800000000000000000e+01 9.900000000000000000e+01 1.000000000000000000e+02 1.010000000000000000e+02 1.020000000000000000e+02 1.030000000000000000e+02 1.040000000000000000e+02 1.050000000000000000e+02 1.060000000000000000e+02 1.070000000000000000e+02 1.080000000000000000e+02 1.090000000000000000e+02 1.100000000000000000e+02 1.110000000000000000e+02 1.120000000000000000e+02 1.130000000000000000e+02 1.140000000000000000e+02 1.150000000000000000e+02 1.160000000000000000e+02 1.170000000000000000e+02 1.180000000000000000e+02 1.190000000000000000e+02 1.200000000000000000e+02 1.210000000000000000e+02 1.220000000000000000e+02 1.230000000000000000e+02 1.240000000000000000e+02 1.250000000000000000e+02 1.260000000000000000e+02 1.270000000000000000e+02 1.280000000000000000e+02 1.290000000000000000e+02 1.300000000000000000e+02 1.310000000000000000e+02 1.320000000000000000e+02 1.330000000000000000e+02 1.340000000000000000e+02 1.350000000000000000e+02 1.360000000000000000e+02 1.370000000000000000e+02 1.380000000000000000e+02 1.390000000000000000e+02 1.400000000000000000e+02 1.410000000000000000e+02 1.420000000000000000e+02 1.430000000000000000e+02 1.440000000000000000e+02 1.450000000000000000e+02 1.460000000000000000e+02 1.470000000000000000e+02 1.480000000000000000e+02 1.490000000000000000e+02 1.500000000000000000e+02 1.510000000000000000e+02 1.520000000000000000e+02 1.530000000000000000e+02 1.540000000000000000e+02 1.550000000000000000e+02 1.560000000000000000e+02 1.570000000000000000e+02 1.580000000000000000e+02 1.590000000000000000e+02 1.600000000000000000e+02 1.610000000000000000e+02 1.620000000000000000e+02 1.630000000000000000e+02 1.640000000000000000e+02 1.650000000000000000e+02 1.660000000000000000e+02 1.670000000000000000e+02 1.680000000000000000e+02 1.690000000000000000e+02 1.700000000000000000e+02 1.710000000000000000e+02 1.720000000000000000e+02 1.730000000000000000e+02 1.740000000000000000e+02 1.750000000000000000e+02 1.760000000000000000e+02 1.770000000000000000e+02 1.780000000000000000e+02 1.790000000000000000e+02 1.800000000000000000e+02 1.810000000000000000e+02 1.820000000000000000e+02 1.830000000000000000e+02 1.840000000000000000e+02 1.850000000000000000e+02 1.860000000000000000e+02 1.870000000000000000e+02 1.880000000000000000e+02 1.890000000000000000e+02 1.900000000000000000e+02 1.910000000000000000e+02 1.920000000000000000e+02 1.930000000000000000e+02 1.940000000000000000e+02 1.950000000000000000e+02 1.960000000000000000e+02 1.970000000000000000e+02 1.980000000000000000e+02 1.990000000000000000e+02 2.000000000000000000e+02 2.010000000000000000e+02 2.020000000000000000e+02 2.030000000000000000e+02 2.040000000000000000e+02 2.050000000000000000e+02 2.060000000000000000e+02 2.070000000000000000e+02 2.080000000000000000e+02 2.090000000000000000e+02 2.100000000000000000e+02 2.110000000000000000e+02 2.120000000000000000e+02 2.130000000000000000e+02 2.140000000000000000e+02 2.150000000000000000e+02 2.160000000000000000e+02 2.170000000000000000e+02 2.180000000000000000e+02 2.190000000000000000e+02 2.200000000000000000e+02 2.210000000000000000e+02 2.220000000000000000e+02 2.230000000000000000e+02 2.240000000000000000e+02
4.444444444444444614e-02 4.444444444444444614e-02 4.444444444444444614e-02 4.444444444444444614e-02 4.444444444444444614e-02 4.444444444444444614e-02 4.444444444444444614e-02 4.444444444444444614e-02 4.444444444444444614e-02 4.444444444444444614e-02 4.444444444444444614e-02 4.444444444444444614e-02 4.444444444444444614e-02 4.444444444444444614e-02 4.444444444444444614e-02 4.444444444444444614e-02 4.444444444444444614e-02 4.444444444444444614e-02 4.444444444444444614e-02 4.444444444444444614e-02 4.444444444444444614e-02 4.444444444444444614e-02 4.444444444444444614e-02 4.444444444444444614e-02 4.444444444444444614e-02 4.444444444444444614e-02 4.444444444444444614e-02 4.444444444444444614e-02 4.444444444444444614e-02 4.444444444444444614e-02 4.444444444444444614e-02 4.444444444444444614e-02 4.444444444444444614e-02 4.444444444444444614e-02 4.444444444444444614e-02 4.444444444444444614e-02 4.444444444444444614e-02 4.444444444444444614e-02 4.444444444444444614e-02 4.444444444444444614e-02 4.444444444444444614e-02 4.444444444444444614e-02 4.444444444444444614e-02 4.444444444444444614e-02 4.444444444444444614e-02 4.444444444444444614e-02 4.444444444444444614e-02 4.444444444444444614e-02 4.444444444444444614e-02 4.444444444444444614e-02 4.444444444444444614e-02 4.444444444444444614e-02 4.444444444444444614e-02 4.444444444444444614e-02 4.444444444444444614e-02 4.444444444444444614e-02 4.444444444444444614e-02 4.444444444444444614e-02 4.444444444444444614e-02 4.444444444444444614e-02 4.444444444444444614e-02 4.444444444444444614e-02 4.444444444444444614e-02 4.444444444444444614e-02 4.444444444444444614e-02 4.444444444444444614e-02 4.444444444444444614e-02 4.444444444444444614e-02 4.444444444444444614e-02 4.444444444444444614e-02 4.444444444444444614e-02 4.444444444444444614e-02 4.444444444444444614e-02 4.444444444444444614e-02 4.444444444444444614e-02 4.444444444444444614e-02 4.444444444444444614e-02 4.444444444444444614e-02 4.444444444444444614e-02 4.444444444444444614e-02 4.444444444444444614e-02 4.444444444444444614e-02 4.444444444444444614e-02 4.444444444444444614e-02 4.444444444444444614e-02 4.444444444444444614e-02 4.444444444444444614e-02 4.444444444444444614e-02 4.444444444444444614e-02 4.444444444444444614e-02 4.444444444444444614e-02 4.444444444444444614e-02 4.444444444444444614e-02 4.444444444444444614e-02 4.444444444444444614e-02 4.444444444444444614e-02 4.444444444444444614e-02 4.444444444444444614e-02 4.444444444444444614e-02 4.444444444444444614e-02 4.444444444444444614e-02 4.444444444444444614e-02 4.444444444444444614e-02 4.444444444444444614e-02 4.444444444444444614e-02 4.444444444444444614e-02 4.444444444444444614e-02 4.444444444444444614e-02 4.444444444444444614e-02 4.444444444444444614e-02 4.444444444444444614e-02 4.444444444444444614e-02 4.444444444444444614e-02 4.444444444444444614e-02 4.444444444444444614e-02 4.444444444444444614e-02 4.444444444444444614e-02 4.444444444444444614e-02 4.444444444444444614e-02 4.444444444444444614e-02 4.444444444444444614e-02 4.444444444444444614e-02 4.444444444444444614e-02 4.444444444444444614e-02 4.444444444444444614e-02 4.444444444444444614e-02 4.444444444444444614e-02 4.444444444444444614e-02 4.444444444444444614e-02 4.444444444444444614e-02 4.444444444444444614e-02 4.444444444444444614e-02 4.444444444444444614e-02 4.444444444444444614e-02 4.444444444444444614e-02 4.444444444444444614e-02 4.444444444444444614e-02 4.444444444444444614e-02 4.444444444444444614e-02 4.444444444444444614e-02 4.444444444444444614e-02 4.444444444444444614e-02 4.444444444444444614e-02 4.444444444444444614e-02 4.444444444444444614e-02 4.444444444444444614e-02 4.444444444444444614e-02 4.444444444444444614e-02 4.444444444444444614e-02 4.444444444444444614e-02 4.444444444444444614e-02 4.444444444444444614e-02 4.444444444444444614e-02 4.444444444444444614e-02 4.444444444444444614e-02 4.444444444444444614e-02 4.444444444444444614e-02 4.444444444444444614e-02 4.444444444444444614e-02 4.444444444444444614e-02 4.444444444444444614e-02 4.444444444444444614e-02 4.444444444444444614e-02 4.444444444444444614e-02 4.444444444444444614e-02 4.444444444444444614e-02 4.444444444444444614e-02 4.444444444444444614e-02 4.444444444444444614e-02 4.444444444444444614e-02 4.444444444444444614e-02 4.444444444444444614e-02 4.444444444444444614e-02 4.444444444444444614e-02 4.444444444444444614e-02 4.444444444444444614e-02 4.444444444444444614e-02 4.444444444444444614e-02 4.444444444444444614e-02 4.444444444444444614e-02 4.444444444444444614e-02 4.444444444444444614e-02 4.444444444444444614e-02 4.444444444444444614e-02 4.444444444444444614e-02 4.444444444444444614e-02 4.444444444444444614e-02 4.444444444444444614e-02 4.444444444444444614e-02 4.444444444444444614e-02 4.444444444444444614e-02 4.444444444444444614e-02 4.444444444444444614e-02 4.444444444444444614e-02 4.444444444444444614e-02 4.444444444444444614e-02 4.444444444444444614e-02 4.444444444444444614e-02 4.444444444444444614e-02 4.444444444444444614e-02 4.444444444444444614e-02 4.444444444444444614e-02 4.444444444444444614e-02 4.444444444444444614e-02 4.444444444444444614e-02 4.444444444444444614e-02 4.444444444444444614e-02 4.444444444444444614e-02 4.444444444444444614e-02 4.444444444444444614e-02 4.444444444444444614e-02 4.444444444444444614e-02 4.444444444444444614e-02 4.444444444444444614e-02 4.444444444444444614e-02 4.444444444444444614e-02 4.444444444444444614e-02 4.444444444444444614e-02 4.444444444444444614e-02 4.444444444444444614e-02 4.444444444444444614e-02 4.444444444444444614e-02 4.444444444444444614e-02 4.444444444444444614e-02 4.444444444444444614e-02
5.715037036629447287e-02 1.504580483196482632e+00 -3.212151696966514258e-02 4.743410715677762179e-01 9.530243736901390372e-01 2.454812229289714764e+00 -1.076789530235744696e-01 2.012580314570996176e+00 -2.048336962332270028e-01 1.117995137811690798e+00 -2.106473774502646279e+00 -1.607323986150675843e+00 -2.892797846323997280e-01 2.966472751981760053e-02 1.135527465467562447e+00 6.011497691700257162e-01 3.519612585485621947e-01 1.151186932687361164e+00 -5.771101521941409684e-01 -4.715387981799782358e-01 3.823064364603566134e-01 -3.590272391382478556e-01 -1.917976256314864181e-02 -1.061064027120893316e+00 -3.609626081068320613e-01 -1.423068983518474440e+00 -2.127479299892252929e+00 -5.468695136431561687e-01 -4.077665482927022578e-01 -2.733282053125349886e-01 1.425477226369852024e-01 2.323017395608711899e-01 3.227973069789932259e-01 -4.361142143817891559e-01 1.082671432331100414e+00 -6.668881482857713650e-01 -6.021443391929788280e-01 9.788683916880386304e-01 1.327172897099229143e-01 3.469467911920265935e-01 -7.567842963898706310e-02 -3.810221546281211680e-01 2.645845172754358821e+00 1.832591486063764430e+00 6.999507645331571465e-03 -5.375206437355458666e-01 1.256835766302049073e-01 2.722975050467908997e-01 -8.039815766903838368e-01 5.825278082828322379e-01 -2.580359362009982060e+00 2.764403270576136329e+00 5.379021048482697243e-01 -7.306952635199343016e-02 -2.140294343014619710e-02 5.006612285452927136e-01 -7.913465460710904509e-01 5.577473815233773280e-01 8.853534296253463554e-01 -1.905842455040253902e-01 6.325583112988436563e-01 -5.308078793737427414e-01 -7.222739135582194603e-01 -2.050451438013080052e-01 2.828834842143272410e-01 -8.932119607886753743e-01 -4.214805284266941454e-01 8.557379359022959653e-01 -4.200735549983288797e-01 -2.759120437063518061e+00 -1.764789735834959572e+00 -4.212537293644107173e-02 -9.381782893394926548e-01 -2.444921167263604533e-01 4.938999628828661947e-01 1.394068275967643433e-01 3.551768913965037133e-01 -1.534955648538865458e-01 -5.851973764794285993e-01 1.408606891771820857e-01 5.358453772225315603e-01 1.303415887489622005e+00 -1.925806700749508105e+00 3.710292671204430404e-01 2.807403725462266908e-01 5.293177619611297846e-01 1.486667654007700179e+00 -2.186273051086734254e-01 -1.755191182371816927e-01 6.012573693127218899e-01 -7.422457297794177178e-02 1.629663509841562830e+00 9.613487957072583967e-01 7.687271653180333120e-01 2.000360994212623034e+00 -1.973074113905657567e+00 1.928024196090456277e+00 1.858902556462774358e+00 4.687060956136781531e-01 3.839458385519741057e+00 -3.460798431876868086e-01 -8.384509549349431490e-01 1.679201630892599439e+00 -3.291494001835534311e-01 4.659096258069947427e-01 1.257838985894098371e+00 -4.243445757368372040e-02 3.065488472860615488e-02 1.740483563022518387e+00 1.207417482710692713e+00 7.973700090289281839e-01 -4.840212154013165402e-01 1.135730424865791566e+00 -1.014670240881489827e+00 -6.348856442352110996e-01 9.520216586078046328e-01 2.677406849898532060e-01 2.190676511456738917e-01 1.364789230216028049e+00 4.365336560218270989e+00 5.150386416543337870e-03 -4.197212442383961295e-01 5.186930032752158359e-01 1.212870552903863031e+00 -1.662350189355681351e-01 -6.400342463317451602e-02 7.309626578844299338e-01 4.319496064210853747e-01 -4.944392251201276678e-01 4.817228995866493779e-01 -2.050267028929881469e-02 -6.046018705174921459e-01 6.546641359273758232e-01 -5.667167016875093166e-01 -3.704461635433997646e-01 -7.961329084608562701e-01 -6.321088337917900590e-01 7.036798563353510172e-01 1.779661294836642760e-01 -9.972606185473147367e-01 2.744647260366482655e+00 -4.006703273173857216e-01 -1.000242755500637404e-01 -7.077854207421918620e-01 -2.782949512556061045e-01 -1.079867526848557358e+00 4.809513484267626260e-01 7.776653373089984500e-01 1.513139470202501835e+00 1.605522919502063717e-01 -9.914151817671239542e-01 -1.025747407262286859e-01 1.237938432204262362e+00 1.542893732205500301e-01 1.258802448503544058e+00 3.020915811544570007e-01 -8.745510837003711568e-01 4.637385222533110807e-02 3.396038475256735190e-02 1.777587794546178657e+00 7.267616534670101602e-02 -2.251755135338127586e-02 6.227629295091651196e-01 -9.788465926439428033e-01 4.179791521142775523e-01 6.058685936510734837e-01 -7.000265894048950388e-01 -2.790623093573414426e-01 9.137032792824448801e-01 8.275524091355344058e-01 3.827193050167496668e-01 1.022737943013723450e-01 -5.500076400942914556e-02 7.810651091738871621e-01 6.584272497381508105e-01 4.388042685635935164e-02 2.016323007902471806e-02 -1.472102941527464459e+00 3.728707654198851085e+00 5.874076716729427217e-01 -2.000840570770229920e+00 -5.340088350887376573e-02 -5.852558753583968487e-01 1.334127054735339213e+00 -1.723082545824452805e-01 8.300979905475061038e-01 -4.382048610614567852e-01 1.184986950882645773e-01 -6.015846610500084068e-01 6.646153770155192042e-01 -1.911461842460087934e-01 6.244262487441022413e-01 -2.271018652101533863e+00 -5.027253818162249477e-01 -1.337660110620251253e+00 1.547967329213429055e+00 -6.789739617707184482e-01 3.022595818823471392e-01 4.371785423315636687e-01 -4.269757698092123688e-01 2.006653801591665509e+00 -2.756352237240793923e-01 7.039115592162117907e-02 2.136431820187741248e+00 1.293786331522257305e+00 -4.080796116207441315e-01 1.805265186208618866e-01 -1.649360117635608192e-01 3.973165472660810105e-01 -1.092512149586882947e-01 -2.221903951505880936e+00 -2.169509646173277684e+00 1.992607702354779742e-01 -7.319634005532135168e-01 -4.096673981682128485e-01 -7.535730855859987809e-01 8.773065290757340318e-01 3.779528459650221550e-01 -8.296438632058924512e-01 -1.287472731943458459e+00 5.741332542444391729e-01 7.938801025095140185e-01 -7.650998745330024331e-01 5.195925408562344083e-01 -1.342058849252347197e-01
8.608132844545859363e-01 1.557648752490612853e+00 3.459972792046546730e-01 1.263533350795643218e+00 -1.693788824279840899e+00 -1.078844591777072121e-01 -1.254521052685185767e+00 1.857515903680473646e-01 -1.405397002281589591e+00 4.559007929431637685e-01 -7.666463721144097798e-01 2.009548184254815517e+00 2.323608420254403423e-02 3.109779816963324506e-01 -4.928604137531614526e+00 1.001544072406689079e+00 -1.015245911613483543e+00 8.812235949626031628e-01 9.252892073272761531e-02 -1.662397025486425373e-01 -1.618711890684949306e-01 3.148218017394858181e-01 -1.327336278231945332e-01 -1.028181037355346827e+00 -1.126050596497157219e+00 1.141072597772588182e+00 -2.685661854659573411e+00 3.623812555200661700e-01 -7.958542122897132032e-01 -1.125651948421857451e+00 2.306691336023869998e-01 2.151444080721667262e-01 -6.934184909561331989e-02 6.245994955816550842e+00 -3.329591876019399321e-01 -6.107800649917034530e-01 3.008800314489326611e-01 -1.264718764781624649e-01 -4.131872031565082537e-01 -3.187138333383690902e+00 2.128915534805908116e+00 -1.544390726563870331e+00 2.580882694793679710e-01 -2.033476755023637672e+00 6.475377513413934638e-01 1.880144897170371032e-01 -3.500672329836560071e+00 -1.293991311895586360e+00 -4.578220843060511469e-01 2.821421924028845840e+00 1.719064803147785980e+00 -1.024925318282379649e+00 -8.613837405445071704e-01 2.362224941083621021e-01 -6.145876394123934716e-01 8.068865274840707480e-01 -8.407637429061161072e-01 -1.469152849840509034e-02 1.691418777294182441e+00 -4.323713484078025027e-01 -2.767304058272690437e-01 6.867530823460122891e-01 -5.666558821229818882e-02 2.629151050638437459e-01 1.442574986411406246e-01 2.562609521508167898e-01 -7.433221239128470215e-01 -3.708138321818656435e-01 -8.446426320601163606e-01 1.387895730847971687e-01 3.594068474683037362e+00 -7.263433074527286815e-03 -3.689590436356322140e-02 -1.152106813617832071e+00 3.338508273732291864e-01 -1.395236009299190560e-01 -1.197362095169426155e+00 8.442584375900277771e-02 3.348703528156359521e+00 -8.602094426058151111e-01 6.593465141801960749e-01 4.715316668187881366e-02 -1.262660625168080086e+00 6.432881067766459404e-01 -6.119201830291206567e-01 -1.875910341535536485e+00 7.609524057855857615e-01 -1.390681812816623175e+00 5.853484324024121888e-02 -4.971531311180814150e+00 -7.964807101429156599e-01 2.687001608720568924e-01 2.334686286030388302e+00 -4.302840064343067539e-01 2.461307810010595898e-01 -2.584402103048824451e+00 -2.187585229959936761e+00 -5.048369023710475023e-03 -7.116965513400204113e-01 -3.134667502154972141e+00 -5.646606662379820563e-01 5.232944157836961763e-01 1.569689781346464752e+00 4.954442663927327017e-01 7.186717336144814450e-01 -5.564297475766922796e-01 -3.715075542436268474e+00 -1.672490807851100270e-01 -1.502745191523293444e+00 2.236323604186322422e-01 1.701556241087113897e+00 -2.259957033306633778e-01 2.030166625423078519e-01 -3.806179654601137274e-01 -7.316705912937482292e-01 9.740738614382169480e-01 2.055843198559389684e+00 -1.778629902616381431e+00 -2.286183123650213034e+00 -1.912236211666288099e+00 -1.664908835891291683e-01 -3.646448650862887941e-01 -2.053830224851949798e-02 -1.125790575802224636e+00 6.586085190092997310e-01 -1.422983594162926302e+00 -1.666025753544482457e+00 8.399728889797334341e-01 -8.921970909398944105e-01 -3.607620454749825289e-01 -5.362340601132991047e-01 3.281354994982796369e-01 -4.333845010705857370e-01 -1.368382810065233990e+00 -3.336423490978411566e-02 -8.664753186967183440e-01 -7.780076847422415787e-01 4.606625002599035179e-01 -6.702482036273578192e-01 -1.723315730991789696e+00 1.043642178476543725e+00 -4.086744617691892012e-01 7.355284983077543803e-02 -8.229618231630160263e-01 -5.106806324813749631e-01 -2.171515668044523284e-01 8.638885832962096556e-01 -1.244941907593082764e+00 1.223269006182061469e+00 4.075819520282912833e-01 -1.139095340362642483e+00 -3.310610432628106614e-01 -1.439323910172737031e-01 -8.505699092791751958e-01 -2.430590319954086670e-02 3.401066929692941332e-01 -2.576108607935746475e-01 1.137389574590277785e+00 9.782195230267179409e-02 -1.308411851554452943e-01 -3.531674753311935255e-01 7.841812682433807469e-04 -5.937662953776395858e-01 -8.427310931390038506e-01 4.175512642324683554e-01 9.988497192587590667e-02 -1.767015036953090978e-01 4.168889630707151017e-01 2.837497984431707199e-01 9.078907878143480104e-02 -4.066668741745749216e-02 -1.579462567577285537e-01 -1.082655999577462946e+00 -6.161033028860946753e-02 -1.797174486181955855e+00 -7.518950535945458924e-01 -6.384654268099725360e-01 -1.249683355713128607e+00 -1.203867126432385914e+00 3.065164328140068672e-01 -2.761286226016122836e+00 6.236372480668724849e-01 2.738020854519802039e-01 -5.047665326222973148e-01 1.705105767070759504e-02 -1.095900174324217380e+00 -8.024208900126152955e-01 -1.288894862767658633e+00 -7.771156900282462088e-01 -1.768299855763319162e+00 -1.210031470600112291e+00 3.641603824339347817e-01 2.858534444802449226e+00 1.924499286392009623e-01 -2.740761062762464007e-01 -1.424827045006817894e+00 6.562319190421490589e-01 -4.514518718223186622e-01 1.771569829514368033e+00 1.442564449689821005e-01 2.512673131057232556e+00 -5.600027246982683948e-01 2.655040652087295339e+00 -1.481751903858082642e+00 -5.529677340279551268e-02 -9.568412617188691849e-01 5.238383234566534874e-01 -2.025257125444096529e-02 8.434999550141477620e-01 -1.063170850988471305e-01 -1.847312610593774052e+00 2.294935677924961670e+00 -8.767101073039491876e-02 -7.206971903219608899e-01 -1.076430624916199674e+00 1.812288640653898053e+00 -5.531687393787585449e-01 -1.607944120991195991e-01 -3.315069992096857376e-01 7.805150357072465628e-01 -3.284256586570723502e-01 -4.723230918099883824e-01 -4.772767025745263125e-01 -1.357101781682274799e+00 -1.187328211333987360e+00
-6.094926676708363189e-01 9.215466203730729999e-01 -1.210088987673203498e-01 4.372559743283419009e-01 1.164810138925124194e+00 1.402128711702073094e+00 -7.334972576876130912e-01 -3.860199070810836908e-01 7.506052462729704278e-01 -4.534172601982670581e-01 2.705035792660863248e+00 5.555274987717675472e-01 -1.633273442856638391e-01 -3.384115636389399828e-01 -8.671263425593840779e+00 2.269767216262278176e+00 -4.348445088014649129e-01 -1.795647541189924423e+00 -3.684747845861883198e-01 -1.973277132417606272e-01 3.016810179207705944e-02 -5.248367167515277654e-01 -7.022190085525773506e-01 -3.130420332715077025e-01 3.984817327924239372e-01 -1.368234008541484581e+00 2.683425585423399595e-01 4.572145529037991984e-01 3.038776605749053672e-02 9.459994856465371305e-01 -9.173069586108856255e-01 1.115297609975350879e+00 2.131104128893675509e-01 1.130609435029689358e+01 -5.845721334364765154e-01 -4.509473065151681781e-01 -3.810514059482736915e-01 -1.244579320884391938e-01 -6.395574331226375753e-01 -8.113892602286241207e-01 -7.706719609935702708e-01 -7.055374332457492459e-01 1.566989883912256243e+00 7.993574968234297140e-01 -5.951367472518864776e-01 5.581155203681196220e-01 -6.575190033191329331e-01 -6.780453610926443497e-01 -6.824101172973202623e-01 2.848066599360977058e+00 3.444519558412097449e-01 2.520957271464259186e+00 4.880002638223583933e-01 4.943984825648592429e-01 -4.139016236224843936e-01 1.830918363789836523e+00 7.768047903461532400e-01 2.713398275094999756e-01 5.688609580064013516e-01 7.497725182601558402e-02 2.977736958309343818e-01 6.456947680684204105e-01 4.823829449029550798e-01 3.185797884509025679e-01 -5.745843484001801338e-01 -5.772840730557017297e-01 -6.830805732234837002e-01 2.548301401324937210e-01 -2.124128315826248614e-01 5.013454875208075423e-01 9.340751432435252521e-01 -1.024572167637276321e+00 -1.553248792107773779e+00 -4.469287567583872800e-01 -6.240675549919160181e-01 -2.636854300265807360e+00 2.983171633670263501e-01 8.293825824571252614e-01 2.355047327916990896e-01 2.365832727726941143e-01 -1.529180668538982213e-01 -6.315576927282180453e-01 -1.033275678680266596e+00 -6.102322678508602660e-01 1.309769550411517547e-01 1.229047792819799811e+00 -1.050179147238714750e+00 -2.027311485581308470e-01 1.535569888591377663e-01 -2.506824785553749546e+00 -5.068118454920838012e-01 -2.303705718914000056e-01 3.510011141986984384e+00 5.630625164938563021e-01 -8.647912836844569018e-01 2.416648513596394654e+00 -2.223984621450220800e+00 -4.446154068357636824e+00 -1.509591249496778365e-01 5.871332483330235164e+00 1.813974473206082516e+00 -1.652386805762821265e+00 -6.295690490750822654e-01 7.245974626006700114e-02 3.411636926552923943e-01 3.010143308016633434e-01 -1.256351554786501623e+00 2.372031248817114135e-01 -7.053646401916466857e-01 3.244487557988698923e-01 -1.123488518569918604e+00 4.688372706869578521e-02 2.511684802505076974e-01 -4.646771471970751466e-01 -3.411286641415938736e-01 -1.818706156161743248e+00 1.644997417974200404e+00 -2.296240095905523138e+00 1.804285226119317631e-01 3.649884187275924230e+00 -1.998161977285651258e-01 -2.905816683173788606e-01 -6.557991793332565988e-01 1.135183875751023974e+00 2.868354797099596509e-01 2.625937810713705467e-01 -1.158677207623671990e+00 4.888790862528459291e-01 1.430619735962908257e+00 2.350404887665803744e-01 -2.716584359481740152e-01 1.855897807727437954e+00 6.083744574463854221e-02 1.073932771847801865e-01 -6.981840127356770953e-01 9.441193261742792942e-01 -1.548250550207175003e-01 1.850534903743957127e+00 -1.056580879881519497e+00 -1.205929439301908657e+00 3.092302472618085218e+00 1.482887869301514172e+00 -7.029353293891681398e-01 6.535867433307971375e-01 1.436567805922437380e-01 5.289780160850207080e-01 -7.823152197743930003e-01 -2.550806933726773584e-01 -4.473613753010111105e-01 1.388271534565241050e-01 -5.614720795528918007e-01 8.516951007544932839e-01 -9.193709174063816603e-01 -5.781834332106836616e-01 3.734449076684507318e-01 -1.785295162422302351e+00 -2.042932643697618067e-01 -1.733839760334475177e-01 -4.056604117005014887e-01 -1.898128577655422422e-01 2.016241275474222883e-01 3.244095398802293584e-01 6.222958064725405691e-01 9.073212291039856048e-02 1.283305645952387719e+00 -4.700354055609682336e-01 -2.975399871296926513e-01 -5.269894523022294885e-01 -1.295749036817413158e+00 -2.785631699653623006e+00 -6.052051455788571843e-01 3.564552068245500083e-01 1.227973515150869499e+00 -5.467286174629848450e-01 -1.455096004996927483e+00 -7.819745716351239606e-01 1.956728872959886123e-01 5.134486170862577747e-01 -3.065526202308862747e+00 -5.995388360360286162e-02 -2.166805694726778864e+00 -3.268936895981370272e-01 -3.785807488951924427e-01 2.041696333961083298e-01 -6.534443580821605035e-01 5.480781327001333914e-01 5.487394584526457120e-01 -1.677010443341113155e-01 -4.081494694744208784e-01 -2.033806411023322713e+00 9.352740096478240339e-02 -4.954388761651689066e-01 -9.363612074582770006e-01 -5.687233053565995400e-01 8.192769849214739386e-01 -3.766813326804845374e-01 2.086744130614840653e+00 -5.891310397931823761e-01 1.786543826264158641e-01 3.591248844614305935e-01 3.881607665170661026e+00 9.147015646354674789e-01 8.671572588724520969e-01 -5.031355463738800271e-01 9.768815438619697922e-01 -2.680348362578878485e-02 -2.617968375797682379e-01 5.571182676542236339e-02 3.878044030852673130e-01 -8.150829701804367389e-01 1.687775085733027869e-01 1.493954014353430892e+00 -6.593775025005538248e-01 1.336885408230069627e-01 -2.164229816401283535e-02 -2.434752306501079211e+00 -4.786461649435114207e-01 -3.580664247749035245e-01 6.993959292597975996e-02 -8.527045197255757047e-01 1.620807704395450521e-01 5.834949863501303069e-01 -1.812830451034404267e-01 1.868719153714980818e-01 -1.338267405420241751e-01
1.320688827985394775e+00 -1.750778060414511506e-01 -1.277487503985479611e+00 8.259291369593981802e-01 5.118726437081145830e-01 7.351998206230786481e-01 -1.010252710565463063e+00 9.043235507089095737e-01 -5.350830969215755045e-02 6.958491423446340196e-01 -9.722567465224564165e-01 3.429468184679835274e-01 -8.382876706891930763e-01 -1.946108750362596451e+00 1.262003622947431625e+00 2.679282021868564789e-01 8.213266285292684099e-01 -6.914732207178734269e-01 1.811508987258586556e-01 -3.245640627576574372e-02 -1.116458841901553312e+00 -2.064912514618291617e+00 -1.720000904505913475e+00 -4.895393136562520287e-01 -1.226922461218433735e+00 4.831767859938174148e-01 5.984452971469454985e-01 9.927965976499304457e-01 2.420596707193958697e+00 1.125430143691774632e+00 -3.102967772752835973e-01 -9.044357947518993912e-01 3.775346680825246160e-01 -8.536300535954857716e-02 2.863225789728084392e-01 -1.640501280770420012e+00 -3.042722968606516587e-01 1.925652134320792463e-01 2.579597992072698354e+00 -3.459867170223432375e-01 9.752861649035551861e-02 -6.524342132838949482e-01 -5.025334147770073034e-01 -4.584276909120733184e-02 -8.227527291819238808e-01 3.804977875891060179e-01 -4.913189530042612607e-01 2.183229331032355613e+00 5.081774213096623694e-01 2.872497492576963074e-01 -2.326074714887142736e-02 2.255546826151949846e-01 3.673595746557557495e-01 2.832879065817643927e-01 -2.349139039809711171e+00 1.061100814132796666e+00 4.538379103181067187e-01 6.832649420360079606e-01 -9.371501032150564292e-01 7.766290681655019235e-01 2.233012149648030964e-01 1.097685570815060574e+00 2.062561963150373323e+00 -3.452352225013791021e+00 5.320119234762414884e-01 -1.992344762564058069e-01 -6.627820656710348840e-03 -2.183003157858590115e-01 -1.697435240207989526e+00 7.742114614238218007e-01 -1.268296395659197717e+00 -3.108947515227111213e-01 1.595968036051159000e+00 6.143116578312446396e-01 -7.789800145407326237e-01 1.594351504367686800e+00 -5.139204238139722936e-01 -3.473158512775973983e-01 2.511108869785080508e-02 -8.286656414824472572e-01 -1.848985554223371297e+00 -2.758113399237537289e-01 -2.329339238427689640e+00 1.294930585966688863e+00 -6.622481947360049359e-01 9.730974063899976434e-01 -1.848901157405262508e+00 1.650658856914630102e+00 2.270338073879263785e+00 7.063830847091844278e-01 -2.540982134191921080e-02 -4.751660505351769648e-01 1.700094305715833753e+00 -1.162590066802286159e+00 -1.096049654841826593e+00 3.600954482914831556e-01 1.388077819720089957e-02 4.202375713045404804e-01 9.814487479603037912e-01 1.199956956449677259e+00 3.247467654656903679e-01 9.285161007404656441e-01 -6.511248401126762397e-01 -2.174847839883359502e+00 6.174008417926776238e-01 -1.335896947938584184e-02 5.584845484539198157e-01 -3.446132402815957896e-01 4.280413453063039442e-01 -1.745092714448175597e+00 2.849520035528886885e-01 6.577204480515231877e-01 1.870343088310360669e+00 -4.988545194152416151e-01 9.349414924276499006e-01 1.835731227246262698e+00 1.242761305522991133e+00 6.095175674047775827e-01 1.564263718327150832e+00 2.095261965995908859e+00 7.654434451745482093e-01 4.846323366230791824e-02 4.932867615590789123e-01 1.919114739817358695e+00 -1.278094584802518918e+00 1.829729175900355331e+00 8.212711524434068711e-01 -1.037233013425811617e-01 8.326740475866196700e-01 1.805884802617294449e+00 6.908692192775640617e-01 -4.594296648947752693e-01 1.016296172632139283e-01 8.475151354422891803e-01 -3.936667069410792474e-01 1.445441496885316868e+00 7.005039347104706493e-02 -2.161778481947601582e-01 2.375622412184392740e+00 5.708346603224574434e-01 1.434807920247354873e-01 7.218560729926026820e-01 5.169733668101901269e-01 2.025645503881867260e+00 1.915951647238745226e+00 -1.143707987817710769e+00 3.095855431850817463e-01 -8.974197410671872488e-01 5.722450030685071187e-01 -1.176722608963673838e-01 -4.951514209215004403e-01 7.546986299455126224e-01 -7.251983921273624789e-02 1.246194425499961511e+00 1.634131930682388267e+00 1.502300091380321501e+00 6.043938648591659080e-01 -4.899978246030170514e-01 -1.159879221136655980e+00 -2.747300524340224870e-01 2.365800802622628762e-01 8.660275445482112922e-01 -1.872684783326513003e+00 -9.832639370636053755e-04 9.809973071070518524e-02 -2.085482735000098842e+00 -1.396342833896692337e+00 3.388929497931480461e-01 -6.579882832580246088e-01 -8.878305717014960130e-02 1.888069995568789849e+00 1.090691131751620135e+00 -1.274917964813642834e+00 5.643871772489009730e-01 -1.430632955196194378e-01 -2.088328805382319686e+00 -1.001129090719777182e+00 -9.283996318058542752e-01 1.701503643441398816e+00 8.531188674471870126e-01 -1.128553721233925389e+00 5.581003966239055369e-01 -2.106600504640939175e-01 -8.048834196123597629e-01 -1.897625982409570478e+00 3.448097349228220754e-01 -1.151305581152689994e+00 -1.246504676466891670e+00 2.412326155062780864e-01 8.436938710914886341e-01 -1.666015184539666238e+00 -3.602874379192434473e-01 -1.618664690282168306e-01 -1.970479904766020418e-01 3.553481280854426938e-01 3.461765885634335849e-01 6.518806387458387919e-01 4.439521388804539281e-01 -6.788308186052104398e-01 -9.906395996254993563e-02 1.117945391508748942e+00 -1.431706249102087103e+00 1.805508388761778438e-02 4.437231709944120084e+00 2.706422185233838817e-01 1.615075287262530690e+00 1.046764105687745916e+00 -3.040856264787500929e-01 7.352380139320491281e-02 -1.122114905325233281e-02 1.422212037858595901e-01 -1.585726512916945108e+00 2.672403235413363998e+00 -9.888422434449004039e-02 -1.262468553005324789e+00 -2.320795362101894188e+00 -5.491076977518422053e-01 5.953781201496876063e-01 -9.328211486454950352e-01 -1.037309832449087033e+00 1.527899935691184041e-01 -7.608932576565912154e-01 4.037593100837555404e-01 4.983229639124843180e-01 -7.822134443804363846e-01
-4.865050242876686748e-03 -1.150531593353550930e-01 -1.775219738082944865e+00 -1.821152849565592646e-01 3.878464055670002852e-01 3.937518750063335182e-01 2.025842683739649708e+00 8.296710892068263066e-01 1.853643958007936243e+00 -1.145617728223524923e+00 -4.846687550969010494e-01 8.873756858909485068e-01 5.250369349604173674e-01 1.307341676774083972e+00 -4.485200910402703300e+00 2.234810676611351243e-01 -3.412209327758354838e-01 -9.456289105462423183e-01 5.789359691790983975e-01 -1.513562513350759087e+00 -2.344061540333766569e+00 1.776768102823175211e+00 9.840948208136020003e-01 -1.942642696787638235e+00 6.022612790427984697e-01 -7.528055379612201559e-02 -1.021238429746815113e+00 4.014214541381598833e-01 -2.016436544883096538e+00 -3.788964276260184394e-02 7.045827453290004483e-01 5.783414100241275335e-01 5.399046067796505755e-01 5.077523282155595119e+00 6.682418090234604202e-01 -1.687049016648764388e+00 8.117177887922982782e-01 -6.443821573370628331e-01 -1.903226670556644962e+00 -5.848292604193072036e-02 1.254164721616034761e+00 6.944038703862784878e-01 6.868681581853050000e-01 4.305610318284184834e-01 -1.833509588861327977e+00 -1.177419218313158877e+00 -4.310950186085050206e-01 1.265489756645698238e-01 1.317701967743356850e-01 -4.936675890465872518e-01 4.344362736339402176e-01 -1.964020013302436585e+00 -1.882167852569393007e+00 -2.155757053831250936e+00 -1.736636342705225822e+00 -3.932847988595964406e-01 6.732919119947315956e-01 1.043607847318729798e+00 3.580670147339043430e-02 9.106516869912465451e-01 7.808961629028212670e-01 -3.937658251542670018e-01 3.629809207054717213e-01 -1.208712607579620402e+00 -6.524470163335294171e-01 1.016855128450966372e+00 2.906082343974323856e-01 -1.624046656707782699e+00 -1.333951138232967848e+00 -1.109943485082902193e+00 1.045495513102435048e+00 -1.535192854101478321e+00 -2.306157908501858422e+00 3.951911790175717254e-01 -1.136190372158445649e+00 1.050112432397744433e+00 1.742107231222923547e+00 -1.256323062995786888e+00 2.865604005364006945e-01 -1.524450531014924781e-01 1.585915707025914168e-01 -6.625904466211651744e-01 -2.520826784644515928e-01 -5.994259439149806079e-01 5.113432697465963850e-01 -2.549896405728173221e+00 1.083848336565015336e+00 -1.488296715674608750e+00 -2.548530673884371045e-01 -1.476304641475026935e+00 1.476793782160736035e-01 -1.785817360636461570e+00 6.863549512193688473e-01 2.092867726425946096e+00 1.628171237351737355e-01 -1.709728159887860199e+00 -7.869989161539474587e-01 -1.529996252601452777e+00 -1.971653055835910218e+00 -1.806996386485187234e+00 8.716612623605208832e-01 -4.509270717137567330e-01 -6.869352386723303061e-01 -1.089500393483640028e+00 -1.254556839817728697e+00 1.939522240448925960e-01 -1.090843527605844132e+00 -1.524715465110979995e+00 1.784459908527113114e+00 -1.007416782779172681e+00 6.516159141813966382e-01 -5.463768911808933870e-01 -2.299363249277787347e+00 6.538434760892739561e-01 1.703968288233946859e+00 -4.963672489500711715e-01 6.397828235966612764e-02 -5.035289256396972835e-02 1.320230226667117868e-01 -7.849725478557434410e-01 -2.130937163837030024e+00 -2.529088916245656904e+00 2.828304193204921546e+00 -8.199093504956103118e-01 -8.154483039843185566e-01 -1.346622269759224499e-01 7.818256612307873388e-01 1.855673813668407668e+00 -5.117991875371553645e-01 1.550611720530549853e+00 -1.394507587279528504e+00 -4.762816962694275125e-01 7.549474562376374820e-01 1.716277100002789657e+00 4.282994514938080477e-01 6.532692415183088963e-01 -1.903426559594639800e-01 -1.647785724697353515e+00 -1.207277711927544850e+00 9.438419499170788152e-01 3.113392441745282402e-01 6.693787272582849557e-01 7.073288880935197920e-01 -5.309813183864019459e-01 1.056450573168638218e+00 -1.476927212289159019e+00 5.785430728904573883e+00 -6.568835182388552685e-01 -5.089047659198476792e-01 2.387101198946841141e+00 5.597497403019235929e-01 1.737972765619274051e+00 -1.193792460216344775e+00 -1.808382941025906687e+00 1.725772351426245521e+00 -7.615510620470702374e-01 -1.489529640008383726e+00 -5.663510616168946493e-02 -4.050652590859101232e-01 -3.925585775920179543e-01 -5.027625537268159972e-01 1.647023873550859996e+00 -1.397535852697818770e+00 3.567712555845978795e-01 -1.211434431716406745e+00 -7.329192404807765016e-01 1.034089717937602071e+00 1.504031720615691237e+00 -6.552180298244389967e-01 -3.392166773267327740e-01 -1.841589937733968174e+00 1.997725512780693879e+00 -6.856304499605413161e-02 4.440068887734810454e-01 -1.005010475897054389e+00 -4.860020860462028330e-02 -6.017036021205669494e-01 -1.104282990743069792e+00 2.701615684789226424e-01 6.731395377275424252e-01 -1.398318363048346447e+00 1.241160653985583284e+00 2.131877487728565779e+00 -1.250807179683718795e+00 3.746142758466784461e-01 3.062550306640743347e-01 -4.938395706457087142e-01 -3.264871723198585485e-02 -1.266598598414732102e+00 6.614663290242206450e-01 8.536811824148037298e-01 1.098391038333104364e+00 1.317411869210818764e+00 5.912162256885240552e-01 -1.702346262278052191e-01 -5.654526024445267751e-01 -4.146679419377886089e-01 -8.373092784238098107e-02 -4.173150663361625545e-01 -2.512850216382587210e+00 7.939360465160203439e-01 -1.153743162543964390e-01 2.129441907349527874e+00 -1.633409681055546514e+00 2.814893714503089228e+00 1.458458612140609123e+00 -2.602139466489238995e+00 -1.490162967902813218e+00 6.741779017341509306e-01 9.198798389566942291e-01 -1.160725963454261489e+00 -1.172735463312800895e-02 9.216700262793333653e-01 -1.938387187812624091e-01 8.968404962735367913e-01 1.051891561222446869e+00 -9.574021926046911712e-01 -1.847359558722505790e+00 -6.783244114614764841e-01 1.942475519521106753e+00 -3.622024329529835440e-01 1.179872508071867721e+00 -1.555034713763303877e-01 -4.295038189436986897e+00 2.256509364015662378e+00
-8.038053357729350035e-01 -4.275620153961128822e-01 1.639194399071655761e+00 -3.269397430860080389e-01 7.091676127412708253e-01 1.557662702981425173e+00 4.538281580333096699e-01 2.455328195905806865e+00 1.346102367744223871e+00 -1.030007359447634219e+00 -1.081805684464162837e-01 2.263096640208890786e+00 8.069331547894206258e-01 -5.823522678525614449e-01 -7.015036914867944340e+00 -7.557629519404247542e-01 -1.056501172946644251e+00 -1.068235028605160286e+00 1.353769879324173697e+00 5.123347815835083141e-01 -2.710827039584289833e-01 9.997556707513062246e-01 1.144571192513540309e-01 -9.657825661164599618e-01 -1.526031657876974201e-01 -1.088780422957449812e+00 3.722809097589367400e-01 -3.913574931194702122e-01 -1.036071839883049961e+00 -1.416912510705575334e+00 8.633752910347340936e-01 -9.453410465148275321e-01 1.437380707312808203e+00 1.004322291467787664e+01 -1.834668967890887847e+00 1.518608598872587256e+00 -1.415676724265085173e+00 1.460957405127701225e+00 -1.804516033745724002e+00 5.673395521442294864e-01 -1.963445971164007320e+00 1.175423783897821428e+00 9.066453402348245705e-02 4.078463717580106951e-01 -9.808886439387215495e-01 1.196083214652232662e+00 1.065016521819967199e+00 -7.344970327029566592e-02 6.754964988670064674e-01 1.153996773126543696e+00 -2.418472687536242227e-01 -4.717325801456868639e-01 -1.134856111326869810e+00 -9.707335034754882575e-02 3.580054178058278969e-01 -8.349448709133630020e-01 -1.429022977510513437e+00 1.398715066238424232e+00 2.856523737808893890e-02 2.786610429018249735e-01 6.670144013873279265e-01 -6.009845407550116203e-01 8.687916598874886320e-01 7.047432236160442454e-01 -5.077118446439611299e-01 1.970561688694971503e+00 1.187168431403747837e+00 -1.098102056275418015e+00 1.286266736647718734e+00 1.294604275634100743e+00 -7.385331556818485188e-01 -2.659539313832238072e+00 -1.394069647383685773e+00 -1.895665255140944527e+00 -1.983395232037129530e+00 -9.663682568788654059e-01 -8.955377184107468080e-01 2.099611209866332651e+00 1.222740925017852809e-01 3.726403370310737984e-01 -9.280130425815091844e-01 5.241649373653723964e-01 9.390579120743252073e-01 -1.226888215519689629e+00 2.443956612430664421e+00 3.048558799601155389e+00 3.021081605102809431e-01 -3.580166086140684212e-01 1.711095195389022994e+00 -1.071193915177098832e+00 3.270573455717163402e-01 4.104054076375636129e-01 -4.037246524355671551e-01 -1.227653548499250402e-01 -3.865906463258479975e-01 5.697832267516327320e-01 -9.765674076155038685e-01 -7.313528417497338063e-01 -1.189797656912826795e+00 1.377190154975358904e+00 -1.122886229301997663e+00 4.378761320307351101e-01 3.064007487236989902e-01 -7.521837668525198362e-02 1.876977481772879042e+00 -5.356934925337517583e-01 -1.138628731000519201e+00 -3.148672519050739749e-01 -4.499619858276884821e-02 4.830674695033706501e-01 1.293161110974231809e+00 -1.258621977479895682e+00 4.998338403748217029e-01 -1.521946592304300294e+00 1.677448792084956120e+00 -7.720709370848980457e-01 1.185467333218578112e+00 -1.788634979814882175e+00 1.757190886225603377e+00 1.373370980708330746e+00 -8.318954838113840067e-01 4.235880203523553211e-01 3.138117268837949947e-01 5.983440269193597283e-01 1.699021387559369156e+00 -1.117311042005858956e+00 -1.105500818114431905e+00 2.019215278913509271e-01 1.045000079445049135e+00 -8.082409345178320770e-01 -3.972603491669037812e-01 -5.917978292319111544e-01 1.760544098514912337e-01 5.337736831632465817e-01 -1.427803850180305423e+00 5.553683718054824858e-01 -1.893105228020616204e+00 6.273649032834802686e-01 -1.877189493911430196e+00 -2.073905889806140213e+00 1.247849808875281186e+00 -1.917770772856720041e-01 -1.822997279783553859e+00 3.802851768331728666e-01 7.141133721330259476e-01 1.075708248996190886e+00 -7.244853751873472358e-01 -1.417195605347771004e+00 -1.077340718389641294e+00 -8.458415674690941133e-01 3.063538936214234010e-01 -9.503406060955970069e-01 1.718990678037942699e+00 -1.380789579930861599e+00 3.780420350327019507e-01 -2.857218729074874619e-01 -1.712003534658444570e+00 -1.761441592297171566e+00 7.547368806002752173e-01 -9.713339383172456820e-01 -1.867871839319194427e+00 4.459557218631439168e-01 -1.105904513438773717e+00 -9.833388431739378266e-01 4.464783758276927861e-01 -1.258951019196280940e+00 1.538851708172607191e+00 5.958669939224068290e-01 4.386312356430513981e-01 3.086177453947585581e-01 7.745141007232270169e-01 1.809132365081740135e+00 -1.314877643532223805e+00 1.914255204960516155e+00 -1.677179486460220970e+00 6.971231468043493917e-01 5.086371185867859523e-01 -1.574866499825657407e+00 -5.080432970002571880e-01 -9.549784423769842601e-01 -6.549353508472444130e-01 5.898030949645199916e-01 1.244371679458402963e-01 9.704007692815679320e-01 -1.656778240953122650e+00 9.853043646180391635e-01 5.538427370659375626e-01 2.366770107735348461e+00 -2.124603916190774822e+00 -7.235238571546104280e-01 -1.779023417950074792e+00 3.691562575371034605e-01 4.949203553547171786e-01 1.660445491509370708e+00 -1.685026187801860420e+00 -9.353091316531993993e-01 -1.188535815452810285e-01 -7.213956839761865858e-01 -8.778314361620234152e-01 -9.335587168865627783e-01 1.297127360463691925e+00 5.791322120748829683e-01 1.097200263915239615e+00 -2.725293396364515952e-01 2.654200101866418526e-01 1.421899757922260754e+00 8.004222737696035095e-01 3.054334986951507402e-01 1.678179557999740279e+00 -5.064464720195949177e-03 7.527289617267491906e-01 -5.335665520171150034e-01 -6.568480594265726502e-01 -1.321663395261641893e+00 1.186048359802534646e+00 -5.110856641916596832e-01 1.183129427536291800e+00 2.311409357261183573e+00 1.423885529104120140e+00 -8.990125141883882343e-01 -2.835092989248720885e-01 -1.648171009114368868e+00 8.503283554635228114e-01 3.617786664259416085e+00 1.256447342119852706e-01
2.264841007308199539e-01 -8.009476763395494414e-01 4.568224397599596753e-01 -4.967698913394416049e-01 -7.910343454004815644e-01 -7.752271933966963235e-01 1.502030777671805595e-01 -2.096580340015135935e+00 1.887765553536202845e-01 -2.197984371691253269e+00 4.299793371038467815e-01 5.332187660377967209e-01 1.531479634177191906e+00 -2.547642740301884201e-01 -1.011152812419422939e-02 -2.364552839242785587e-01 -2.105725210848112816e+00 -1.455219009991217449e+00 3.281862282424119481e+00 2.150783301491845823e+00 -1.670644421084554576e+00 2.207581665797359260e+00 -9.337643374645214767e-01 3.090132278619976525e+00 9.499517688093999102e-01 8.752370638294318939e-01 5.372689075374178502e-01 2.680038512776309112e+00 9.887913380420293441e-01 4.227510026799903842e-01 -6.630729254292501151e-01 -2.691281117397479328e-01 -1.273873744389634410e+00 2.814659757227232044e-03 -2.675907032429399202e+00 3.280523051058659600e+00 2.652705673240933493e+01 -3.006506561400823063e+00 7.988684561578306143e-02 -2.449105305394332632e-01 1.545928407551335204e-01 8.797486736984321265e-01 -8.244977346280037978e-01 -8.066752715304976729e-01 5.954887566505602248e-01 2.402055749449714561e+00 1.039136517462628390e-01 -1.176103341964150228e+00 2.792676947087491701e+00 -2.854257649194396479e-02 6.480532368622400341e-01 -4.189602440063986966e-01 -1.236207087687751560e+00 -5.152564748267356443e-01 -2.914424351479735220e-01 -1.256666734903421900e-01 3.016167204356191789e+00 -2.641368128098394941e+00 -6.563003039615551426e-01 -3.161179724735609931e-01 -3.468485128090585512e+00 1.429693822983313156e+00 2.799532913293328207e+00 1.014993238758936656e+00 -8.696593728782887611e-01 3.646966242827236471e+00 1.288653870377642452e+00 -4.098705095271563792e+00 2.628537198050479029e-01 9.328188363079257250e-01 2.261476619161245927e-01 2.850839420291073623e-01 1.129571544616785994e+00 8.091276700893748064e-01 -1.430550492765065629e+00 7.088218647302413356e-02 -9.071973479055150946e-01 4.700300753489863870e-01 1.235086317309750659e-01 -8.805884696087573626e-01 -1.849592898125858698e+00 -2.408587216786750140e+00 1.146436261717631799e+00 -1.199637031177397617e+00 -1.611467025576859946e+00 -1.869757740431524651e-01 -1.291785309377802671e+00 7.557414654692631295e-01 1.616576427191717125e+00 -3.576985754888263591e-02 6.690212090218232710e-01 -1.971618171873239511e+00 -7.673198369464115376e-02 4.851549499211998295e+00 -1.609729671309253929e+00 2.899659384144946950e-01 -4.225634885321378764e-01 -1.542736361784706467e-01 -2.276195953647628833e+00 -8.074660469158816134e-02 2.247360146812202308e-01 7.877356958194812186e-01 -9.704723411985413106e-01 2.105019554482362221e+00 -2.244603919895143740e+00 -1.381290994611730882e+00 8.586102984273759342e-02 8.250945602098295195e-01 -1.077938132853637265e+00 -4.874226376699909657e+00 -3.838088981669737221e-01 2.670963286768440081e+00 6.034802582536338278e-01 4.246653283536346635e+00 4.753339852258503306e+00 2.977265285126060590e-01 -2.691011082680190222e-02 1.163027026099558159e-01 -6.514490934895452723e-01 -2.039152880022448711e-01 -4.526980440736193545e-01 1.191679435401142406e+00 -4.149100548115534082e+00 -1.161932810884893419e+00 6.644167636647017039e-01 -3.499154943678413066e-01 -7.567708573639120306e-01 -1.840124553018994025e+00 7.425925745007241341e-01 1.461954419038480779e+00 -4.332126120946158676e-01 5.076022730547486983e-01 -3.616325066506020036e+00 2.074199135430359942e+00 3.463452765097238650e+00 1.867832503289615920e+00 3.546360481456471092e+00 -6.328701286822092653e-01 -7.420821858635825441e-01 8.175160111074496472e-01 -3.163411860134673348e-01 5.559261578151891703e-01 -1.773145594973867478e+00 1.129532016362346569e+00 2.713993906026888503e+00 2.682372951973087893e+00 -1.158495636739663492e+00 -1.891957507195493937e+00 -1.072826075635919585e+00 -1.070671164590048408e+00 2.173783745439499704e+00 -6.646331025866977771e-02 -1.974876190217395688e+00 -1.794682346794705730e+00 -2.807195559592438716e+00 -1.305327981567803441e-01 4.946912749660031139e+00 2.754581457027602820e-01 -2.444742415616584785e-01 -2.185683114360340795e+00 -5.832773386599408028e-01 1.985798455906547799e-01 -3.616191950870246696e-01 3.760629361306235818e+00 -6.871164499478348286e-01 -3.082297070875179568e+00 3.412315229689407037e+00 -3.633548728915000914e-02 -1.155181434461588941e+00 -3.100001358372345139e-01 -1.287336687226048992e+00 -1.898578823290335782e+00 -3.847898993010026580e-01 -3.533108724841545811e+00 -3.489044264317360811e-01 -7.765634989659420118e-02 1.458088574348011257e-02 1.697123610958708451e+00 -3.119770266073149667e-01 -2.346211265604956075e+00 3.367685289174007224e-01 1.140727717672401331e+00 -1.914329339848790568e+01 -4.102443850012809534e+00 3.996244057315698761e+00 -1.860185313841400179e+00 7.426879251799093362e-01 -1.645247571403220643e+00 -1.695496281844746655e-03 -3.848535664294620018e-01 -6.976451080007819994e-02 -3.361435391415615648e+00 3.490904496101406851e-01 3.029555103305182406e+00 2.149760195670115781e+00 -1.123763952698824120e+00 4.920730436598025337e-01 -3.100859850035411203e+00 -1.640237983251424392e-01 2.386379377421612880e+00 -1.698662562392453390e-01 6.347752193165056012e-01 2.386630568408272882e-02 -1.359189604876160917e+00 -1.573961963527367613e+00 1.174129020644798072e+00 -1.438937870897103011e+00 7.704977951767196798e-01 1.362530228730996384e+00 1.923182733742995199e+00 9.179012976666125478e-01 4.059078625867449941e-01 -9.133428138606481950e-01 2.955283433561552542e+00 1.836279728991072169e+00 2.228871082186988373e-01 -2.324702457800440936e+00 -2.086037925178089836e+00 3.774626299628758286e+00 1.465620524962288007e+00 -3.221666744418920203e+00 -1.025139923307065537e+01 3.618066031442490615e+00 -1.757397234519380014e+00 -6.059863991088744184e-01
-4.130851932065567667e+00 -8.501838909047494397e-01 -2.742951198804822965e+00 -2.248782777457078552e+00 1.086429290294520511e+00 1.439666392510851878e-01 2.584982746973000012e+00 -3.799598922513037214e-01 2.518186203526346034e+00 -1.629878903094405418e+00 9.406912632335480418e-02 -6.925820327947999067e-01 -1.674298733995724042e+00 -2.595383834327263717e+00 4.790572322333474381e-02 -5.727833097677655916e-01 2.536235986952997123e+00 -3.040495294913304614e-01 3.966487751505272108e-01 -8.030941128511287497e-01 -5.723279930593568876e-01 -1.782100360778659853e+00 1.991788114909780916e+00 1.703247254225988661e+00 2.497724723149397974e+00 -7.962404482297434916e-01 6.493877839309712963e-01 -3.256830867473212709e+00 2.990953323289429200e-01 1.557965348494080970e+00 -2.145947741933207809e+00 -6.119748370658953940e-01 -1.985191911111049201e+00 -2.889720324166873341e-02 7.828497143205656039e-01 -8.372479828332193286e-01 -4.030035923296913580e+01 -2.573665762301678428e-01 1.215292223049244003e+00 6.433894775934253518e-01 -1.225324998041595226e+00 2.628614039243887479e+00 -3.096614189951622520e-01 7.616325230661072920e-01 -2.742537996722815397e+00 -8.540553123303910033e-01 9.382051108199728207e-01 2.686427549848706686e+00 2.781072044261878040e-01 -4.082241343690852231e-01 -4.001159913758041142e-01 1.523787026988216442e-01 2.177416511263118082e+00 -2.267450292935474732e+00 1.604446369402266370e+00 -8.170019736802963672e-01 1.009449469322177162e+00 -2.523628161012635207e+00 -1.377009885267744371e+00 -2.309000926891148220e-01 -1.299877255339245474e+00 -2.387453155221519463e+00 -4.106634563513114067e-01 -3.054564537854818074e+00 -2.612708942844408355e+00 -1.616460071306733859e+00 1.590523206581478499e+00 6.530979833497799758e-01 2.148828795236594758e+00 -1.277677529699507986e-01 -4.509666472411127947e-01 -5.304452807344499643e-01 -6.999037432377354373e-02 2.910007564006843683e+00 -2.437099955454548716e+00 1.664484704435474638e-02 2.363231365559520736e+00 -9.447596726361645603e-01 -6.701118203426283948e-01 2.858562241949706539e+00 -3.024066983662402119e+00 -4.916011965667298478e-01 4.888038039053492767e-01 -2.899486463423681215e+00 2.098454604470119556e+00 1.304413964475696464e+00 -9.086955062041486286e-01 4.561955784702542260e+00 -3.109188537826364396e+00 3.084584456195100244e-01 2.730768655922180432e+00 -9.086021641215601408e-01 -2.337015543349816038e-01 -1.232609120837718386e+01 -3.000714539114234247e-01 3.423319077354493034e-01 4.098107505378992266e-01 -2.382820624361773817e-02 2.229761755939883905e+00 6.967690951037051883e-02 2.964826561905688496e-01 -7.139986529549383620e-01 -1.182755825586704779e+00 -3.357843276540632527e+00 2.529729397753248399e-02 1.981857736349188270e+00 6.982439079306907992e-01 7.253711884344941907e-02 8.785602364292184330e-01 -2.514805695571619371e+00 -1.261127319786686352e+00 -3.311274617122292319e-01 -8.207113967293792056e-01 -1.316723388408737663e-02 -4.586269290281368427e-01 -1.142641269918729829e+00 -7.734637194299920360e-01 5.677255938358833909e-01 1.126446880010922635e+00 8.318442587408093891e-02 1.400423211758056452e-01 9.316581242580252997e-01 4.091112624512118628e-02 7.407362598592520664e-01 -3.523324638165952205e+00 3.532552648683557894e+00 1.106869526408692295e+00 -2.538105426094543038e+00 8.737949659224978349e-01 2.166361781540449893e+00 6.801324381939337638e-01 -2.699079147980567583e-01 2.561087754470533273e+00 3.448515126654961183e+00 2.658588364111086344e-01 1.208580066017179711e+00 2.004590117032666541e+00 -1.443819759279189041e-01 1.166316622423738680e+00 1.111799501077469943e+00 -1.354760720855537892e-01 -1.902213469252204969e-01 -4.692578574254255841e+00 8.298879481005958514e-01 2.190955314055397007e+00 -3.575818838161609059e-01 -2.751096178142208082e+00 2.100431161035209993e+00 -1.056740250483866772e+00 -2.761657231421619230e+00 2.042656951927452447e+00 -1.354941114871200530e-02 2.702373808813126610e-01 2.549677022087785794e+00 2.257008640090075180e-01 -4.940674325605683981e-01 -9.614057022586579571e-01 -2.987638013526269898e+00 -9.196611474461008351e-01 3.434216367883544119e-01 1.881283352961859556e+00 -2.147928379938658594e+00 1.946408749385623027e+00 1.652277830835491068e+00 -1.027980760106381064e+00 -1.176963172768233479e+00 -1.057481230996681010e+00 -5.425157990159462429e+00 -5.474115414691604897e-01 -9.642658027838316159e-02 5.830965760390425245e-01 1.541625418513218118e-02 1.185995713543791519e+00 2.989769926655131971e-01 1.173704593937331175e+00 1.723748482700721896e+00 2.030200765912765437e+00 1.015518479144650099e+00 7.726763574566006265e-02 -1.944040168579587835e+00 3.774936173863440159e-01 -4.117216737128016391e+00 3.272669357581913374e+01 -4.291742236235956964e-02 5.247723662894727692e-01 1.950322684340718649e+00 1.085408928483485802e+00 3.337432424950717014e+00 5.888237038188840700e+00 6.377985593644300844e-01 3.183810052993303774e+00 -2.799559643873267945e+00 -4.337755479882549059e-01 -1.064667405745538975e+00 -1.512400547939099227e-01 9.796368303125481125e-01 -6.575268717840854205e-01 1.844783199920975392e+00 -1.744024355564447459e+00 -9.164312529260393303e-01 -1.994058094900057476e-01 6.495792500837437311e-01 -8.785028312680769336e-01 6.241236444541172768e-01 -2.653074825053193808e-01 1.168270090848162912e+00 -3.400761850851190538e+00 4.233679944715705301e-01 -3.925292149684912246e+00 1.288101710363297014e+00 5.578883253996460567e-01 -4.042325298386044707e-01 5.363771759294492236e-01 1.060715164193782201e+00 6.112268084568110105e+00 -5.155300309749580867e-01 1.660367362521798729e+00 6.576247820778491349e-01 -3.574796132581124497e-01 -1.055210299493176684e+00 -2.957376935799005402e-01 1.274561385703984762e+01 7.146889670306123543e-01 2.980358632058536461e+00 2.575353523863789462e+00
1.659869319548185507e+00 -5.379852444867554428e-01 -1.112444901626712612e+00 -8.212135590100058113e-01 -9.777488692871090237e-01 -4.503021249823790373e-01 2.526184620527973212e+00 2.343338847405504466e-01 -1.635475727477833985e+00 6.213959211479822553e-01 -5.389928360959274078e-01 -1.868118633877146606e-01 2.439122977030419859e-01 8.658792027372538280e-01 8.935945748912832443e-02 -1.144150932222197881e+00 1.075267157915189786e+00 1.072964127995480021e+00 3.488652894063892229e-01 1.966888200307568835e-01 8.781845451418692772e-01 2.025529870540349275e+00 1.979082669880548595e+00 3.283535386570768377e-01 -2.169093222237786556e+00 7.439177600660175083e-01 -9.395491119809556979e-02 -1.572558007531427826e+00 -2.285975377924218677e+00 -2.104750674291207435e+00 4.069167354882324616e+00 -2.223447676406586471e+00 -2.100091432123599500e+00 -5.091051855466696696e-02 1.390533518740969310e+00 3.607078246212556571e+00 3.318592943275382900e+00 2.553531275893978769e-01 3.152242911392937330e+00 2.578382401483340636e-01 3.843707248991414804e-01 1.473509752936131623e+00 -5.275640963653571713e-01 -4.126426107798102927e-01 2.370695872142298377e+00 -3.615039093963340999e+00 -6.471347138200682358e-02 1.825570155005445949e+00 3.322367331415967850e+00 -3.260160353475797246e-01 -6.968764543279805379e-02 -4.217233042985427116e-01 -1.894545563416232259e+00 -3.798275462644432832e+00 2.214555514380056156e+00 -1.107159366363879016e+00 -2.094299166493557962e+00 -2.250514988825585760e+00 -5.159974726062002137e-01 -7.586090055341296323e-02 -3.887503571131857960e+00 -1.829630424782690890e+00 -2.092711108673563913e+00 -1.869601203923498156e+00 1.822226457248449227e+00 1.729146848566171180e+00 3.663245852336102004e+00 -8.542367030020621144e-01 1.641353892649471291e+00 -1.751372853216681680e-01 -1.162518275770939580e-01 5.314127896024802844e+00 1.693219635721090688e+00 1.985102613652431014e+00 3.092277463406457816e+00 1.164284047550700807e+00 -1.447758555090198795e+00 -3.313536584299471954e+00 -1.871103884973963558e-02 -1.812619338309092276e+00 -2.124928482716584299e-01 1.008964374645031414e+00 5.823861735359490144e-01 1.646329858796758527e+00 -8.076141792557394172e-01 -1.033289286721285727e+00 9.658654343803914077e-01 8.446192549874648181e-01 -2.874884179521341121e+00 1.634942109652157693e-01 2.119547159495763111e+00 -7.138739932898988810e-03 -4.096906232645403101e-01 3.148697748097812443e+00 8.682756750956128755e-01 -3.633180716125761767e-01 4.723815829049815562e-01 3.940597590528617244e-01 6.773219742091378670e-01 -1.366180977925468831e-01 -2.117956518299548563e+00 1.476329497374368138e+00 3.561276370670881652e-01 -5.565672347574165402e-01 -3.336382766304964512e-03 -2.485974992573845466e+00 3.258322477513880822e-01 -4.814660948788495043e-01 7.700187101424684766e-01 -3.765260882627870398e+00 6.804384841001105411e-01 -2.048566343950585011e+00 2.020638225004649513e+00 1.627194008797024471e+00 -2.537599151608233683e+00 1.276353321161530552e+00 -6.039851571154088994e-01 1.015528848982444776e+00 -1.148204888777639709e-01 -1.689645523637396674e-01 4.650367747547252684e-01 1.579165397353357037e+00 4.072909187019053689e+00 -1.272636493635945110e+00 -1.590987391545215957e+00 -1.429939305336007660e+00 6.875244577463548445e-01 -5.970680269644383920e+00 -2.080534671017146842e+00 -3.342003666267827189e+00 -5.494016502485958853e-01 -1.248643438257898586e+00 1.703273539766886335e+00 -7.342790763261011211e-01 3.577477806860228871e+00 -3.781899351664735676e+00 -1.122408754172591783e+00 -1.370119028956764851e+00 3.626803530492195282e+00 9.880585655055288408e-01 -3.631959954681197589e-01 -1.932446130608272306e+00 4.708132893145284825e+00 -2.595495455056746059e-01 -3.108047911206285985e+00 -1.333817273821042093e+00 1.885862940069672478e+00 5.151117786409017407e-01 1.110362343419334513e-01 -1.600740654749502667e+00 1.725010318287740319e+00 -2.973546788781011418e+00 2.037662574583503972e+00 2.116035396091335397e+00 -1.469147683668600157e+00 1.871810165900803735e+00 -2.455980122937009846e-02 4.534980565496560256e-03 6.344763887287906412e-01 -8.057665583584349561e-03 -1.635279422277150951e+00 -3.537241992527772716e+00 -3.320139783298172720e+00 -8.842538602514693480e-01 -1.967704772405039382e+00 1.979599954398856276e-01 1.425697417624577135e+00 2.037960796427569665e+00 1.980413926028038230e+00 1.002751722451841188e+00 1.984160232928791290e+00 -5.595644716546625652e+00 -2.278866520032115428e+00 1.658552718832008388e+00 1.195469498742685932e+00 3.833030882888799340e+00 -1.959064343978006439e+00 -6.432535810206030380e-01 2.479865161853193611e-01 -7.315039747038953877e-01 3.402140971957802740e-01 1.038531055107976414e-01 -3.488123726136839409e+00 1.302676852897094228e+00 1.988369152175639698e-01 -1.362160572977509920e+00 -2.198242042602654767e+00 3.865085581580610663e-01 6.738048407629564807e+00 9.849525182882162833e-01 -1.684918302135217871e+00 4.292118428586973455e-01 1.523938502086976676e-01 4.001591826978359911e+00 -1.404715939984394479e+00 5.610003580058110090e-02 -1.222521269590706172e+00 2.046345924567026575e+00 -1.059935261543107493e-01 -1.595141331532831330e+00 -2.960721302549454426e-01 -2.778638737040571183e+00 -2.683419773164426592e-01 1.605144596328365036e-01 -1.664784134768810819e+00 -7.267222657020969701e-01 -1.542961773464171515e-01 1.007223980920795903e+00 1.720773643848000356e+00 6.056040013912054931e+00 -8.570544163124814430e-02 -3.065825988968865490e-01 3.194978020180798683e+00 -2.014065452509862464e+00 -6.368514934126396909e-01 6.174895380996073824e-01 1.262767596880846943e+00 1.406984415399799293e-01 -1.906019675178881601e+00 6.891423450886998703e-01 1.502125046284433996e+00 -8.767394354498666331e+00 -1.171914732639352391e-01 -3.593228482298633231e-01 5.471427810170090833e-01
