# 
#                 ----------------------------------------------------
#                 Data from a 3D direct N-body simulation. 
# 
#                 rows are i-particle; 
#                 coumns are :mass, tag, x ,y, z, vx, vy, vz, ax, ay, az
# 
#                 NTHU, Computational Physics 
# 
#                 ----------------------------------------------------
#                 Time = 0.0
0.000000000000000000e+00 1.000000000000000000e+00 2.000000000000000000e+00 3.000000000000000000e+00 4.000000000000000000e+00 5.000000000000000000e+00 6.000000000000000000e+00 7.000000000000000000e+00 8.000000000000000000e+00 9.000000000000000000e+00 1.000000000000000000e+01 1.100000000000000000e+01 1.200000000000000000e+01 1.300000000000000000e+01 1.400000000000000000e+01 1.500000000000000000e+01 1.600000000000000000e+01 1.700000000000000000e+01 1.800000000000000000e+01 1.900000000000000000e+01 2.000000000000000000e+01 2.100000000000000000e+01 2.200000000000000000e+01 2.300000000000000000e+01 2.400000000000000000e+01 2.500000000000000000e+01 2.600000000000000000e+01 2.700000000000000000e+01 2.800000000000000000e+01 2.900000000000000000e+01 3.000000000000000000e+01 3.100000000000000000e+01 3.200000000000000000e+01 3.300000000000000000e+01 3.400000000000000000e+01 3.500000000000000000e+01 3.600000000000000000e+01 3.700000000000000000e+01 3.800000000000000000e+01 3.900000000000000000e+01 4.000000000000000000e+01 4.100000000000000000e+01 4.200000000000000000e+01 4.300000000000000000e+01 4.400000000000000000e+01 4.500000000000000000e+01 4.600000000000000000e+01 4.700000000000000000e+01 4.800000000000000000e+01 4.900000000000000000e+01 5.000000000000000000e+01 5.100000000000000000e+01 5.200000000000000000e+01 5.300000000000000000e+01 5.400000000000000000e+01 5.500000000000000000e+01 5.600000000000000000e+01 5.700000000000000000e+01 5.800000000000000000e+01 5.900000000000000000e+01 6.000000000000000000e+01 6.100000000000000000e+01 6.200000000000000000e+01 6.300000000000000000e+01 6.400000000000000000e+01 6.500000000000000000e+01 6.600000000000000000e+01 6.700000000000000000e+01 6.800000000000000000e+01 6.900000000000000000e+01 7.000000000000000000e+01 7.100000000000000000e+01 7.200000000000000000e+01 7.300000000000000000e+01 7.400000000000000000e+01 7.500000000000000000e+01 7.600000000000000000e+01 7.700000000000000000e+01 7.800000000000000000e+01 7.900000000000000000e+01 8.000000000000000000e+01 8.100000000000000000e+01 8.200000000000000000e+01 8.300000000000000000e+01 8.400000000000000000e+01 8.500000000000000000e+01 8.600000000000000000e+01 8.700000000000000000e+01 8.800000000000000000e+01 8.900000000000000000e+01 9.000000000000000000e+01 9.100000000000000000e+01 9.200000000000000000e+01 9.300000000000000000e+01 9.400000000000000000e+01 9.500000000000000000e+01 9.600000000000000000e+01 9.700000000000000000e+01 9.800000000000000000e+01 9.900000000000000000e+01 1.000000000000000000e+02 1.010000000000000000e+02 1.020000000000000000e+02 1.030000000000000000e+02 1.040000000000000000e+02 1.050000000000000000e+02 1.060000000000000000e+02 1.070000000000000000e+02 1.080000000000000000e+02 1.090000000000000000e+02 1.100000000000000000e+02 1.110000000000000000e+02 1.120000000000000000e+02 1.130000000000000000e+02 1.140000000000000000e+02 1.150000000000000000e+02 1.160000000000000000e+02 1.170000000000000000e+02 1.180000000000000000e+02 1.190000000000000000e+02 1.200000000000000000e+02 1.210000000000000000e+02 1.220000000000000000e+02 1.230000000000000000e+02 1.240000000000000000e+02 1.250000000000000000e+02 1.260000000000000000e+02 1.270000000000000000e+02 1.280000000000000000e+02 1.290000000000000000e+02 1.300000000000000000e+02 1.310000000000000000e+02 1.320000000000000000e+02 1.330000000000000000e+02 1.340000000000000000e+02 1.350000000000000000e+02 1.360000000000000000e+02 1.370000000000000000e+02 1.380000000000000000e+02 1.390000000000000000e+02 1.400000000000000000e+02 1.410000000000000000e+02 1.420000000000000000e+02 1.430000000000000000e+02 1.440000000000000000e+02 1.450000000000000000e+02 1.460000000000000000e+02 1.470000000000000000e+02 1.480000000000000000e+02 1.490000000000000000e+02 1.500000000000000000e+02 1.510000000000000000e+02 1.520000000000000000e+02 1.530000000000000000e+02 1.540000000000000000e+02 1.550000000000000000e+02 1.560000000000000000e+02 1.570000000000000000e+02 1.580000000000000000e+02 1.590000000000000000e+02 1.600000000000000000e+02 1.610000000000000000e+02 1.620000000000000000e+02 1.630000000000000000e+02 1.640000000000000000e+02 1.650000000000000000e+02 1.660000000000000000e+02 1.670000000000000000e+02 1.680000000000000000e+02 1.690000000000000000e+02 1.700000000000000000e+02 1.710000000000000000e+02 1.720000000000000000e+02 1.730000000000000000e+02 1.740000000000000000e+02 1.750000000000000000e+02 1.760000000000000000e+02 1.770000000000000000e+02 1.780000000000000000e+02 1.790000000000000000e+02 1.800000000000000000e+02 1.810000000000000000e+02 1.820000000000000000e+02 1.830000000000000000e+02 1.840000000000000000e+02 1.850000000000000000e+02 1.860000000000000000e+02 1.870000000000000000e+02 1.880000000000000000e+02 1.890000000000000000e+02 1.900000000000000000e+02 1.910000000000000000e+02 1.920000000000000000e+02 1.930000000000000000e+02 1.940000000000000000e+02 1.950000000000000000e+02 1.960000000000000000e+02 1.970000000000000000e+02 1.980000000000000000e+02 1.990000000000000000e+02
1.000000000000000000e+00 1.000000000000000000e+00 1.000000000000000000e+00 1.000000000000000000e+00 1.000000000000000000e+00 1.000000000000000000e+00 1.000000000000000000e+00 1.000000000000000000e+00 1.000000000000000000e+00 1.000000000000000000e+00 1.000000000000000000e+00 1.000000000000000000e+00 1.000000000000000000e+00 1.000000000000000000e+00 1.000000000000000000e+00 1.000000000000000000e+00 1.000000000000000000e+00 1.000000000000000000e+00 1.000000000000000000e+00 1.000000000000000000e+00 1.000000000000000000e+00 1.000000000000000000e+00 1.000000000000000000e+00 1.000000000000000000e+00 1.000000000000000000e+00 1.000000000000000000e+00 1.000000000000000000e+00 1.000000000000000000e+00 1.000000000000000000e+00 1.000000000000000000e+00 1.000000000000000000e+00 1.000000000000000000e+00 1.000000000000000000e+00 1.000000000000000000e+00 1.000000000000000000e+00 1.000000000000000000e+00 1.000000000000000000e+00 1.000000000000000000e+00 1.000000000000000000e+00 1.000000000000000000e+00 1.000000000000000000e+00 1.000000000000000000e+00 1.000000000000000000e+00 1.000000000000000000e+00 1.000000000000000000e+00 1.000000000000000000e+00 1.000000000000000000e+00 1.000000000000000000e+00 1.000000000000000000e+00 1.000000000000000000e+00 1.000000000000000000e+00 1.000000000000000000e+00 1.000000000000000000e+00 1.000000000000000000e+00 1.000000000000000000e+00 1.000000000000000000e+00 1.000000000000000000e+00 1.000000000000000000e+00 1.000000000000000000e+00 1.000000000000000000e+00 1.000000000000000000e+00 1.000000000000000000e+00 1.000000000000000000e+00 1.000000000000000000e+00 1.000000000000000000e+00 1.000000000000000000e+00 1.000000000000000000e+00 1.000000000000000000e+00 1.000000000000000000e+00 1.000000000000000000e+00 1.000000000000000000e+00 1.000000000000000000e+00 1.000000000000000000e+00 1.000000000000000000e+00 1.000000000000000000e+00 1.000000000000000000e+00 1.000000000000000000e+00 1.000000000000000000e+00 1.000000000000000000e+00 1.000000000000000000e+00 1.000000000000000000e+00 1.000000000000000000e+00 1.000000000000000000e+00 1.000000000000000000e+00 1.000000000000000000e+00 1.000000000000000000e+00 1.000000000000000000e+00 1.000000000000000000e+00 1.000000000000000000e+00 1.000000000000000000e+00 1.000000000000000000e+00 1.000000000000000000e+00 1.000000000000000000e+00 1.000000000000000000e+00 1.000000000000000000e+00 1.000000000000000000e+00 1.000000000000000000e+00 1.000000000000000000e+00 1.000000000000000000e+00 1.000000000000000000e+00 1.000000000000000000e+00 1.000000000000000000e+00 1.000000000000000000e+00 1.000000000000000000e+00 1.000000000000000000e+00 1.000000000000000000e+00 1.000000000000000000e+00 1.000000000000000000e+00 1.000000000000000000e+00 1.000000000000000000e+00 1.000000000000000000e+00 1.000000000000000000e+00 1.000000000000000000e+00 1.000000000000000000e+00 1.000000000000000000e+00 1.000000000000000000e+00 1.000000000000000000e+00 1.000000000000000000e+00 1.000000000000000000e+00 1.000000000000000000e+00 1.000000000000000000e+00 1.000000000000000000e+00 1.000000000000000000e+00 1.000000000000000000e+00 1.000000000000000000e+00 1.000000000000000000e+00 1.000000000000000000e+00 1.000000000000000000e+00 1.000000000000000000e+00 1.000000000000000000e+00 1.000000000000000000e+00 1.000000000000000000e+00 1.000000000000000000e+00 1.000000000000000000e+00 1.000000000000000000e+00 1.000000000000000000e+00 1.000000000000000000e+00 1.000000000000000000e+00 1.000000000000000000e+00 1.000000000000000000e+00 1.000000000000000000e+00 1.000000000000000000e+00 1.000000000000000000e+00 1.000000000000000000e+00 1.000000000000000000e+00 1.000000000000000000e+00 1.000000000000000000e+00 1.000000000000000000e+00 1.000000000000000000e+00 1.000000000000000000e+00 1.000000000000000000e+00 1.000000000000000000e+00 1.000000000000000000e+00 1.000000000000000000e+00 1.000000000000000000e+00 1.000000000000000000e+00 1.000000000000000000e+00 1.000000000000000000e+00 1.000000000000000000e+00 1.000000000000000000e+00 1.000000000000000000e+00 1.000000000000000000e+00 1.000000000000000000e+00 1.000000000000000000e+00 1.000000000000000000e+00 1.000000000000000000e+00 1.000000000000000000e+00 1.000000000000000000e+00 1.000000000000000000e+00 1.000000000000000000e+00 1.000000000000000000e+00 1.000000000000000000e+00 1.000000000000000000e+00 1.000000000000000000e+00 1.000000000000000000e+00 1.000000000000000000e+00 1.000000000000000000e+00 1.000000000000000000e+00 1.000000000000000000e+00 1.000000000000000000e+00 1.000000000000000000e+00 1.000000000000000000e+00 1.000000000000000000e+00 1.000000000000000000e+00 1.000000000000000000e+00 1.000000000000000000e+00 1.000000000000000000e+00 1.000000000000000000e+00 1.000000000000000000e+00 1.000000000000000000e+00 1.000000000000000000e+00 1.000000000000000000e+00 1.000000000000000000e+00 1.000000000000000000e+00 1.000000000000000000e+00 1.000000000000000000e+00 1.000000000000000000e+00 1.000000000000000000e+00 1.000000000000000000e+00 1.000000000000000000e+00
8.603663969422181701e-02 1.398162543256276091e-01 6.005573607252820967e-01 2.930405241673816885e-02 8.935445265672696813e-01 4.344397039804738236e-01 9.692521537126386200e-01 6.584523765211001134e-01 9.024875144149234751e-01 8.512285958248425599e-01 3.715730620774974069e-01 4.410269571719823700e-01 6.839115874994080579e-01 7.347329451881897677e-01 9.823296218816265357e-01 8.743540464066946738e-01 4.825442066319940437e-01 6.948330054387718002e-01 7.962113132819294004e-01 1.634239772531755897e-01 6.151551984016828678e-01 5.661445711221596566e-01 9.996760267335255135e-01 3.141283462214526923e-01 4.150721311998522012e-01 5.630621375162756514e-01 9.337947114593774245e-01 5.151176820922440669e-01 9.820548129426642792e-02 3.337917733033078926e-01 9.894496702523065679e-01 7.784926292399801939e-01 9.130481816756507163e-01 1.771354307007955153e-02 9.464694103403670233e-03 5.329563612721537336e-01 5.231797552648076444e-02 5.132467590195889384e-01 3.032539395944650051e-01 3.597523312662852524e-01 8.544410188977047405e-01 5.464062976796200122e-01 4.992162499477881266e-02 2.019244229567495053e-01 9.131714748790850100e-01 7.544816321957484861e-01 2.515713220258732896e-01 7.411698806763719061e-01 3.317204031564147115e-02 1.357868230554201139e-01 4.714086363099601051e-01 7.269581814252351615e-01 5.017939990686853813e-01 3.300559257318983475e-01 6.382803404643755396e-01 1.519672498832251861e-01 4.775236032670089337e-01 2.614173314994566732e-01 1.171218439615554496e-01 2.019732801832919700e-01 6.002157988777822029e-01 2.805872370792886761e-01 1.605245001579481690e-01 4.238866265464491523e-01 1.406418858896618662e-02 7.453692857602497446e-01 8.209055771266868806e-01 5.442060649403708261e-01 1.103778575954886820e-01 2.779090534549706337e-01 8.308459190107988501e-01 6.560302107594314647e-01 8.043391950951064295e-01 3.413397285372373746e-01 3.070794919652292121e-01 3.450299537106286119e-01 5.106442309891571218e-01 5.208043018228116772e-01 7.940103864702545700e-01 7.340409893801382868e-01 2.318315600272491395e-01 6.093225777697421908e-01 1.022094422128813074e-01 4.580733124396708655e-01 7.486523192197915844e-01 3.923415736123776476e-01 6.087422775898775340e-01 1.913768288210841995e-01 5.076318330502506138e-01 1.385843923732839045e-01 4.248297896621338055e-01 3.124731328236359795e-01 5.500266126414795620e-01 2.324034453757842789e-01 6.943659273374754859e-01 1.643087090297934427e-02 4.499364604503670595e-01 5.868307731847325348e-01 2.279852504876828112e-01 7.359788645147491426e-02 9.690680726668966516e-01 5.385146205238647843e-01 6.566376844818734293e-01 3.527562019182051145e-01 1.297120010511398913e-01 6.540425709240091923e-01 9.825181530695390464e-01 9.796058032887143829e-01 1.173784263359876068e-01 8.649966709507886931e-01 5.318665809498382968e-01 9.625394368194883921e-02 2.277744050231899076e-01 3.596118774420113962e-01 8.859116245725249250e-01 8.053004436645379016e-01 6.824992398253015846e-01 9.647906002988737573e-02 7.708989204154700348e-01 5.276469232141993704e-01 7.791023079118085670e-01 7.546365970950483781e-01 8.873794542261640439e-01 8.336799709040237927e-01 1.699984009814337060e-02 7.542608620334229075e-01 8.291534318754684163e-01 2.238973073801284741e-01 9.076124720944473978e-01 2.151834126289253746e-01 8.070634594658011585e-01 8.821176894069199248e-01 1.073011451695552454e-01 7.213984012359808684e-02 3.661869977504756957e-01 2.491727674692399974e-01 9.295728811617403053e-01 5.171220518128687438e-01 2.941626193324095029e-01 1.451843130035427309e-01 2.560855175864051869e-02 5.548293404910247251e-01 1.498160165963458024e-02 2.362209339995209323e-01 1.682514989014098905e-01 4.434033114796873676e-01 5.667849681071218670e-01 7.771924525911863002e-01 7.652378020580873352e-01 2.840732713873340698e-01 2.874230571106320964e-01 3.373072328240223072e-01 5.661493378982443980e-01 7.380658225186030874e-01 6.261520599984511382e-01 3.131196283711268347e-02 7.018192709879393920e-01 7.142404345289509182e-01 5.187517385461565267e-01 1.696161282194077469e-01 4.257038497543401689e-01 6.845852149994926528e-01 1.512771221890887308e-01 4.793463105707318483e-02 6.134984839010723112e-01 9.262105667648969920e-01 3.177573278343831520e-01 6.057997323364756603e-01 8.071998687738629608e-01 9.435254768772544098e-01 8.130931330293261761e-01 3.689927982101921522e-01 5.215632520186728183e-01 9.733247666892359540e-01 8.425439334638251676e-01 3.296157108271364766e-01 3.000576834506718527e-01 2.922835694695297137e-01 5.545648087697988560e-01 8.948195049850541372e-01 7.925992538591133396e-01 3.905638512021820663e-01 1.453338613330622531e-01 9.962798264869585640e-01 3.999216802674104843e-01 5.764171908765638452e-01 2.945425146113653803e-01 3.712432936670251316e-02 8.381971076571611556e-01 1.439086285395406728e-01 3.392833497412814925e-01 2.985812760214190398e-02 1.685691052003878143e-01 9.525931350519465379e-01 9.424081805342257034e-01 9.131519935661185361e-01 5.987237129145128733e-01 9.844940445439752663e-01 8.799345546985773980e-01 4.438740279184787418e-01
3.595749782928630012e-01 2.331293387179955712e-02 3.040353820441318300e-01 3.443785829899942419e-01 2.499962195838668633e-01 7.489198508079595307e-01 1.292928453983765991e-03 8.772097363036343021e-01 8.667310959054320696e-01 7.017477094435129459e-01 4.258505628690838485e-01 6.044916571685449158e-01 7.053983209974656887e-01 8.384482367236545386e-03 2.448542752230999930e-01 5.219479621691726079e-01 9.186533315688827361e-01 7.389544604811444373e-01 8.130390578663160284e-02 2.261822711013828924e-01 8.079057500025775829e-01 8.620915751686005768e-01 5.696013633948369126e-01 8.248319352057795761e-01 2.447356387892993812e-01 6.097243730794068561e-01 9.779945826928689856e-01 2.535993715776102553e-01 2.099350710174643364e-01 5.094805218842803907e-01 6.784133713122134646e-01 8.834609634264442013e-01 1.708807822547220301e-01 1.601039375328595638e-01 2.531753756795052102e-02 7.881964588504070113e-01 2.779833496294006334e-01 1.433326121733879965e-01 2.765752159785116460e-01 6.883258775878813296e-01 6.928190617386726924e-01 4.909154339215286988e-01 6.257776187124122202e-01 3.056646632813480036e-01 8.684654753327872845e-01 6.156132827200283542e-01 4.294890093857683944e-02 1.039636911955907905e-01 2.812859615699904170e-01 1.131793919702387408e-01 5.728567214404371999e-01 5.828704717089335796e-01 2.803446685151366191e-01 7.654392634061122358e-01 3.182264710021468490e-01 6.618526514882672185e-01 6.810978951996861097e-01 4.570122159721669020e-01 4.536072670827130393e-01 2.095700958105741751e-01 8.948864428211750210e-01 7.630604682714289266e-01 7.819768590037889933e-01 4.175452308335214635e-01 6.102365934786794233e-01 3.480618892239870643e-01 3.958345027743984668e-01 3.354788652376510250e-01 5.329602337851360172e-01 3.739965647624821088e-01 6.652385413790407043e-01 8.752813419779511550e-01 4.681137715073749872e-01 6.732026571159313022e-01 2.274690060991827467e-01 8.614983552617765383e-01 9.765898654325999573e-01 2.464760442967469656e-01 4.847208609158834003e-01 9.372987821766969319e-01 4.180572063779618430e-01 3.298719810506306471e-01 1.420602767959098234e-01 1.197209412620614533e-01 4.974815338241558305e-01 1.895170297698101081e-02 9.830660602599585740e-01 9.923127402296505473e-02 2.253184932718432787e-01 4.475481516445530827e-01 8.666621143775207203e-01 4.127262882077614714e-01 9.925303419544645456e-01 2.297449197719777514e-01 6.973685401245051096e-01 5.620798186745734615e-01 7.593433010727088650e-01 9.750152343503797336e-01 9.075922856893969826e-01 1.956229510526892312e-01 1.556762463819111320e-01 4.998317127377148728e-01 3.000946739287332354e-01 3.630797123454169162e-01 9.140762713704909670e-01 2.069475603603813108e-01 7.772699782702838789e-01 1.116586910978822900e-03 3.851283603640296427e-01 2.917880105976764504e-01 4.486541943727815340e-01 9.299898938869201048e-01 6.330183759583175584e-01 5.699288948863555637e-01 2.932830096124106056e-02 7.241099792583227668e-02 3.409577084234171052e-01 5.179497475584425858e-01 1.785844193241313826e-01 7.453147006396698693e-02 1.724450745729126933e-01 2.912308395150164930e-02 4.586757026092441736e-01 6.937181465141555314e-01 7.693303944450935461e-02 9.371291700644549527e-01 7.269623293179710011e-01 7.689269425594269514e-01 6.720367933476079081e-02 2.526345588859753022e-01 2.028778541599871588e-01 1.009971287620077263e-01 9.212740959531666718e-01 3.101498121064060198e-01 7.340264866693837487e-01 2.638869027120019917e-01 1.244927341234514095e-01 4.885213274506461367e-01 3.702263254274100746e-01 5.363327147244725257e-01 8.568605047769439764e-01 3.771618096412485688e-01 5.026453539744103471e-01 9.298179601173948150e-01 1.749468693266801322e-01 2.262782063678849820e-01 2.608794408280774579e-01 3.310877373292286929e-02 9.838457882463735871e-03 3.127079330650569533e-01 6.367256136593316684e-01 5.275785738361723487e-01 7.956952840095212753e-01 9.303868520101044037e-02 4.552127739802943607e-01 2.208941692464013729e-01 2.054137818262175008e-01 2.996290190989049362e-01 2.023019827032911389e-01 1.137493172793699880e-01 9.909360666156320496e-01 8.578634537952245509e-01 4.663029272618030019e-01 1.435873091203431207e-01 9.187581580335164588e-01 9.470275292445179405e-01 9.975226412814612864e-01 2.668876109406492780e-01 2.712227065316582530e-01 3.408549872569976991e-01 3.929085506659659721e-01 5.871987206151287886e-01 9.930438915742249018e-01 2.969516014890405398e-01 2.259376140836124591e-01 7.251288647048226288e-02 1.001592230123000693e-01 7.219938064914763753e-01 9.153689531368698340e-01 5.092795229000036672e-01 8.141471699638205273e-01 5.848133423206210990e-01 8.383482074852131039e-01 9.331959693988890470e-01 3.508034633556963433e-01 7.739008559220160732e-01 3.853137724044649604e-01 4.197347009812610885e-01 3.510092032985212551e-01 3.293568342498701673e-01 4.739074131219576103e-01 9.667165303832941925e-01 3.379460124118383035e-03 2.536817535135453827e-01 7.659587842093569243e-01 3.362666918076449019e-01 7.425081059141289685e-01 6.104298823949144692e-01 8.665535649261933981e-01 8.513680666675834674e-01
8.603632024866503247e-02 1.947202163609751402e-02 4.513364768485521594e-01 2.647648645157497649e-01 5.747297844233114628e-01 6.063396111664198784e-01 5.412352570167667798e-01 7.029582113684740285e-01 4.932667954005296451e-01 2.541331335712548878e-01 8.269611244651340343e-01 7.025559302510222537e-01 7.676753808567848836e-01 2.624492057277871826e-02 9.917138449813240886e-01 2.025630288669858503e-01 3.409128397759917384e-01 1.553951770779797847e-01 8.313437561977382595e-01 1.409658290174539141e-01 2.619580407397132937e-01 6.330622537469547950e-01 1.882811223640052933e-01 1.573383601036584256e-01 1.549837473330858417e-01 3.623948688918149363e-01 5.969451702958918915e-01 9.069072671970502819e-01 6.057878388103256073e-01 3.145312766124743753e-01 9.695244362605360822e-01 4.422251661270344414e-01 7.849770121199092232e-01 9.690748366430925742e-01 6.539502511868967582e-01 9.129241578627966813e-01 9.436204271937335131e-01 7.879061662728554793e-01 1.725045500058887127e-01 2.965793080437585383e-01 5.786365057833542380e-01 4.200510387980711524e-01 6.015579199538324540e-01 6.612385714893213029e-01 5.692876327519147406e-02 1.092955389225049867e-01 3.254173458357344506e-01 7.872663467093635736e-01 8.457685872355397150e-01 3.902522869917240955e-01 7.387343326032183022e-01 5.814653588512548321e-01 5.179963808783198953e-01 3.757842717281579814e-01 3.430003015240734587e-02 3.738321281157663822e-02 6.797941566204422914e-01 1.494528111140047688e-02 5.193104671591893817e-01 8.457423890782337361e-01 1.018588473684711726e-01 6.522190440206423467e-01 5.745643066536176846e-02 1.268997033660897999e-01 8.125692081130555522e-01 3.664639339047018884e-01 7.715610644707514565e-01 9.712998841071112111e-01 8.441245826758985160e-01 7.932200833882115942e-01 3.469426643904426344e-01 9.496139773760676750e-01 6.094633308448519360e-01 6.882124817432186958e-01 8.152303692352508291e-01 3.693542344925113685e-01 9.340711177290880185e-01 1.919818721414574547e-01 6.231352139123114142e-02 3.166016435306096000e-02 2.339447980544833161e-01 2.368826892916776616e-01 3.293615184398438478e-01 7.320252987078370577e-01 2.897321276430374626e-01 7.256326048017580632e-02 7.691283684473203541e-01 5.726035209304228824e-01 2.833461672915154050e-01 6.754579596478094139e-02 1.861877684683681533e-01 5.906825021044943558e-01 3.240506330013436243e-01 5.093818840418856686e-01 6.607553448996469347e-01 7.990559213198888955e-01 2.898139788095202007e-01 1.352138861287635052e-01 3.647389853250249114e-01 4.293096434211307599e-02 2.232137872967344672e-01 1.643070598532386795e-01 4.818452759998604895e-01 3.120015501857196227e-01 3.028111392700134630e-01 5.225404861984640492e-01 6.145171935186578560e-01 8.500694272745987767e-01 9.743706096689941365e-01 3.903969737749941604e-01 6.711567577593868794e-02 7.091032447847286369e-01 3.781217542555848077e-01 1.964318049470091809e-01 4.848010540875042906e-01 2.287575997386404048e-01 3.032378490445533092e-01 2.157075849426970393e-02 2.208693856664465383e-01 1.732328301499330703e-01 6.743606504275355684e-01 6.523476440310014279e-01 4.509364824105515090e-01 9.748738707207451615e-01 8.206499844680253952e-01 5.791926321202253147e-01 6.800284945987812302e-01 3.790455929351537190e-01 8.698707548130084621e-01 3.773368879332719139e-01 5.823907190564233671e-01 7.650222383548399563e-04 2.424156041084966073e-01 8.411085857712441438e-04 5.629171444744317521e-01 9.406912041218074005e-01 6.072219167178970478e-01 2.154069694370166488e-01 6.928358239411566144e-01 7.691470829005638832e-01 4.378929593391617248e-01 4.430700543090362320e-01 4.728251155265398298e-01 9.288318057455884347e-01 7.108801175860423038e-01 4.222316379436157341e-01 9.889270109525910568e-01 5.040804643897013326e-01 6.858573318682318343e-01 2.414175116473474825e-01 1.859273025232858201e-01 3.461265727044211538e-01 3.386892446542487667e-01 2.428167191703195504e-01 9.558150096826595332e-01 4.933996707458513375e-01 2.802381967718660105e-01 1.541140188936851452e-02 6.525279476173462267e-02 4.397121262198496749e-01 1.787431493946097794e-01 4.282289353482342520e-01 4.499748370988989610e-01 5.138897483080094863e-01 1.296445806001704781e-01 4.841527893484930400e-01 4.129808585952884359e-01 6.972879034087551275e-01 2.351364541118673435e-01 9.732425798834020148e-01 4.901470817240618505e-01 6.263802868747935237e-01 6.658773266981835581e-01 2.476893995469612308e-01 1.975002040557061189e-02 6.484215408800871883e-01 3.901523097794550310e-01 1.613645180272590407e-01 8.222070830976052624e-01 2.951224548585191787e-01 3.693397208836255441e-01 9.116415749075673647e-01 8.735227811464519876e-01 4.749064567886055466e-01 6.676292425512930784e-03 7.864960155655329466e-01 8.412857958599803121e-01 7.397139752462541518e-01 4.682421727269479028e-01 1.113526964360810334e-01 9.153068178232689478e-01 8.503711796168493819e-01 8.892415318954838277e-02 6.062236301430170560e-01 1.760322073814568622e-02 7.501843866686361828e-01 5.048266843422932748e-02 9.673284839238223132e-01 7.401209252197604727e-02 1.207539926898673066e-01
7.558826942780999536e-01 3.789938896060822682e-01 7.448633380036725482e-01 3.786457906459174128e-01 8.565214409102165360e-01 9.404478573909859085e-01 9.961693442629960815e-01 6.889018712472709804e-01 6.089039900703614450e-01 3.521132467780565545e-01 6.954431803236961196e-01 3.363030709359454695e-01 2.697097323610935238e-01 8.106365966658745092e-01 3.224112952090223416e-01 3.738951446966425340e-01 2.783846998369150505e-01 2.198279197271350016e-01 9.921920824306685871e-01 3.802777711160076901e-02 3.431244791166557784e-01 8.695437009766325831e-01 9.251038527859245519e-01 9.581291030847968182e-01 8.513192253261094855e-01 5.793442020878309950e-01 3.601202785589008304e-01 1.695281847967355926e-01 9.782460871860597651e-01 9.657751108600347578e-01 2.181472697114090753e-01 7.436545883768931331e-01 6.410398452877411613e-01 7.168712582388232502e-01 4.949162983046281328e-01 6.057964815467756781e-01 4.953731581454110522e-01 7.584468589711894637e-01 2.363760369630004687e-01 4.384951621770083463e-01 6.850071777899747749e-01 5.370378963310512566e-01 9.851534331924589605e-01 9.363295345412407933e-01 9.319960516832663799e-01 1.392592089953161860e-01 8.158336240853797383e-01 7.990714219939533125e-01 9.194651686304118332e-01 3.103507604021332744e-01 9.527483530907751019e-01 1.983537434054416515e-01 1.977809216342356624e-01 8.716204549305004434e-01 3.280321661005821676e-01 3.097308936320233297e-01 3.362248955166744491e-01 2.053009494390817258e-01 6.218325216066795669e-01 1.610976076804382373e-01 9.687064210684588339e-01 5.498430497086860269e-01 2.066778554353541075e-01 5.771841757656864802e-01 3.811186779927558943e-01 8.402794611807824499e-01 2.957095913140375121e-01 6.419152197125661541e-01 4.213194898147155643e-01 1.113979633870578745e-01 6.661003683244082207e-01 3.443563722367437574e-02 3.398079999474057367e-02 1.883189644332451396e-01 2.348574967082850407e-02 8.757501965984821890e-01 7.156013361456570188e-01 9.365725497677401812e-01 6.784482074644159200e-01 1.063529814030303999e-01 8.911711234158415929e-01 8.712999399147036694e-01 9.684222258764644264e-01 2.404561247899920096e-01 8.013689742475215150e-01 4.302023585937453376e-03 7.313423228584317037e-01 7.433510784305158436e-01 7.478008617746693121e-01 8.870908100719555600e-01 5.771689589200379444e-01 9.024705755567278276e-01 1.060726648293769392e-01 3.811575089175563980e-01 9.577198953787736668e-01 5.262577359715796543e-01 3.671885419487618263e-01 5.321031348404534622e-01 5.397651713953129926e-01 3.769934378505470640e-01 3.938599826935735848e-01 8.912234606435934792e-01 5.913079840098235396e-01 2.583029322128181926e-01 5.979731501729289578e-01 7.935569219271927377e-01 1.282157659322405996e-01 6.240338684485101650e-01 2.798372287090021837e-01 1.323282772331210166e-01 4.713031484617657974e-01 5.490359305452752192e-01 5.394125599615804401e-01 5.342380324181559281e-01 3.624856392684293604e-01 9.172779138056463832e-01 3.517555423322926700e-02 7.344665522872042551e-01 6.079717394120326412e-01 6.122255797334575922e-01 1.581827951436365343e-02 7.821356482537904498e-01 3.455258382432935260e-01 2.310909394172241393e-01 8.755023556564122122e-01 1.164711189422164006e-01 7.799176211298465278e-01 7.947968369740182615e-01 3.902941099822991866e-01 5.613586234286376264e-01 2.107040674796597512e-01 6.688536783134049202e-01 3.102178088880952478e-01 5.227683142613742673e-01 1.585117320940517827e-01 7.484412742298629517e-02 4.402996560765127798e-01 1.710746866041267245e-01 4.566785674830523556e-01 3.139524076925799267e-01 6.832493986354244431e-01 4.113346036920817461e-02 7.390634792103645268e-02 5.793890907493158826e-01 5.728387204529400423e-01 6.132022860072474657e-01 4.468831419827604678e-01 7.133393705501459570e-01 6.717271391074673970e-01 5.754803775261965182e-01 7.103820294060652074e-01 1.039439200834093580e-01 4.931316686958189255e-01 4.261822242951140982e-02 8.921334572064124613e-01 7.819822331757247946e-01 4.428370816562247070e-01 9.647397723973035744e-01 3.440049408801920672e-01 8.111650822253574367e-01 8.894018915845428586e-01 7.750469792319455431e-01 2.754397207446571683e-01 2.630646772813695078e-01 9.135269246519007735e-01 2.167491291704203293e-01 7.789967120168428405e-01 4.744534846540705564e-01 5.502539905529912900e-01 3.270383097339507605e-01 2.621834087900687393e-01 2.130327709288108995e-01 1.935867373078393738e-01 7.350294467041023072e-01 7.241801636547571253e-01 1.106447152090106467e-01 4.303622425310223987e-01 6.034821463361486060e-01 1.682038418836394600e-01 1.917835693233699290e-01 3.173227653922436886e-01 9.347556790227321555e-01 4.077209300449149421e-01 5.249811165016027292e-02 4.389723572451804667e-01 4.905856792257239363e-01 3.602862393491541582e-01 1.958272987731413117e-01 3.154754148142490111e-01 4.571529335507161784e-01 7.267348010623466692e-01 6.111328453711324382e-01 4.899646405051339970e-01 7.363748232555600293e-02 5.010845105141228384e-01 4.080383372797344865e-01 3.719098063379583374e-01 8.484456219114918651e-01 2.550975102446769727e-01 4.585717028146341079e-01
3.003547573564934181e-01 5.639886344860384204e-01 7.233365256919449537e-01 1.287242131356868269e-01 5.153166663238587519e-01 6.148965416830689534e-01 3.704737974525632582e-01 3.047956226488611753e-01 7.415542055691535239e-01 9.785671328212105502e-01 8.472167720850356520e-01 9.336283678966734723e-01 6.218826737788822889e-01 1.067414147447242057e-01 5.879590917134903671e-01 1.793587669134141249e-01 2.095122437704285412e-01 1.493133310628473875e-01 2.165334988366532931e-01 1.962492459305709147e-01 8.856957230828643723e-01 7.131948615078151921e-01 1.180288921322586448e-01 3.412908300484810420e-01 8.431573927613951192e-01 5.156897228563342983e-01 8.329996971166867548e-01 8.647027476866084861e-01 9.497750589771897234e-01 5.593135297463623923e-01 7.884174556699300451e-01 7.240581801282550689e-01 7.439198663017174695e-01 4.017404558860302455e-01 2.709166907206120856e-01 5.587063225146824408e-01 4.734545858671396212e-01 3.640866529332031920e-02 5.114092352701816724e-01 1.359336796716597018e-01 4.695261278821225570e-01 1.877367467491197761e-01 9.547501804525093672e-02 4.444354010353902540e-01 1.457703551593207969e-01 2.653565413513686577e-01 4.755019156430918548e-01 5.114964850022428733e-01 3.184901497006570326e-01 1.430077402918917828e-01 9.932522023288918867e-01 6.167665997451691196e-01 5.217568689773797175e-01 3.182821524818013614e-02 4.834564539795216387e-01 5.156338677374117108e-02 6.342649942888746173e-01 4.661325756255193520e-01 2.870020705717224452e-02 3.732881221998896049e-02 4.293726295722208874e-01 1.181656929237907550e-01 1.978858014537849819e-01 9.838139446399173371e-01 4.619285194825933916e-01 6.820484797048166348e-01 3.821238131324454779e-01 5.277974661550690616e-01 9.101525748082426315e-01 1.014973903938106714e-01 3.665983516421532640e-01 7.080886703250026670e-01 3.546576983784578418e-01 8.005750053154403467e-02 7.721906265948230708e-01 1.362418236775692071e-01 6.746085239484976848e-01 7.207640800706717199e-01 5.974673859264473252e-01 2.499250871274393271e-01 1.526630288651560363e-01 4.712568568480167697e-01 1.582222875915465510e-01 3.217821233752427013e-01 9.740944458365802250e-01 5.672571900666317779e-01 2.517382442763963502e-01 8.648745711500828159e-01 5.865072539851268196e-01 5.780173521004645654e-01 5.284765063526488671e-01 6.881169447250948812e-01 1.901191259868562078e-02 6.961575000845853234e-01 1.851418518407893510e-01 4.352564555645408451e-01 2.194009322053064315e-01 2.469687516718584996e-01 6.355590373203864329e-01 9.411875861912702979e-01 7.864567618364448620e-01 6.586712060824868598e-01 6.972252641091258862e-02 2.204918613717190556e-01 9.945616367814348324e-01 7.125915889908176482e-01 3.073500391893965178e-01 4.989767711127754968e-01 5.768617405650713348e-01 6.956877135536091439e-01 8.188406845814978352e-01 3.642641486345032931e-01 3.394164107666328700e-01 6.761786931015997260e-01 8.288284130829631779e-01 4.401729036022303809e-01 4.446877762158564229e-01 7.950868039082781280e-01 4.433039192368327663e-01 1.408482287550714140e-01 4.788685931789807837e-01 3.495470791727216531e-01 6.354169181310552750e-01 1.295461423636492526e-01 3.348976207034203290e-01 9.857952845406136033e-01 9.777342684402441364e-01 7.738018407813582744e-01 2.946150461843307644e-01 2.718026958057286890e-01 7.286730312650850916e-01 8.859703814165948987e-01 2.508922067786756305e-01 2.799699246054982993e-01 2.392746770200352424e-01 7.790161845792915596e-01 6.861443890410650059e-01 1.532853298537463216e-01 5.928469906656027577e-01 2.180812106160997521e-01 7.506127516359920593e-01 6.801511088805817229e-01 9.851947248735414275e-01 7.429852278058256543e-01 6.103515279789872849e-02 4.334076872808323433e-01 2.501116106364770220e-01 5.163359254052609648e-01 9.277969224399932324e-01 3.373833709919141777e-01 6.362868867648988624e-01 3.552510155843845441e-01 9.135577396356220348e-02 9.913524038405305827e-01 7.446241993687596761e-01 5.885595554501424909e-01 8.282068975730937366e-01 5.163357889305151271e-01 9.641593328417351616e-01 9.612508174555711715e-02 8.636649480183173910e-01 3.311056434237577006e-01 1.803874030803929163e-01 5.483273442681347865e-01 5.595791059446895144e-01 4.714075134546055201e-01 3.615894897225053750e-01 9.702163917245543168e-03 8.133699653049629719e-01 6.864231579683097717e-01 6.340939819299858948e-01 5.232375001692084471e-01 2.959189110439071069e-01 9.585579052836836755e-01 6.923743474388968089e-01 3.285312741720969321e-02 2.511528168956672635e-01 5.005592936214637856e-01 7.332169667703857252e-01 7.907407582004186697e-01 1.795271579373702853e-01 7.921429318875486958e-01 5.652678902939100025e-01 2.132421175026462112e-01 4.631852226284073337e-01 5.490533563154554875e-01 4.814656959026253347e-01 6.687301787818703547e-01 1.427877915553853461e-01 7.692988324670446687e-01 9.477331546536691409e-01 9.306975830251016379e-01 3.581903533918473492e-02 6.189616335255718749e-01 4.055155754055916884e-01 5.304877304510102753e-02 8.165724886527506721e-01 6.901524096315447832e-01 1.425843046728562102e-01 3.247355529574661448e-01
4.089165094734409367e-01 7.043945742407136112e-01 9.203229786500639609e-01 9.615227998737908566e-01 6.314839284882680648e-01 7.011630215840214397e-01 8.106007905965239013e-01 2.802181070742147950e-01 9.608315440166994570e-01 4.494863688489022513e-01 6.353743963996402178e-01 9.384967194429711945e-01 5.932323382851527604e-01 2.528820334033543560e-01 1.574421650092150404e-02 8.797450603389540547e-01 5.390513481160774667e-01 6.906797857663510287e-01 8.092123237962367543e-02 4.207865114838810205e-01 2.602363309005458758e-01 2.031484004581233238e-01 4.263150361093837049e-01 5.310027264919091605e-01 7.061108352556488832e-02 6.057501275485122072e-01 1.305481118610336555e-01 2.410292379126202089e-01 9.577333592269239304e-01 3.398006518327950642e-01 4.810697696877441754e-01 1.251743286806189515e-01 2.147900956309519716e-01 7.744384006743774140e-01 9.326580810815729983e-01 8.237457807215556871e-01 8.013087110989316475e-01 8.602771855457954642e-01 3.278907953920241480e-01 7.173428160386066121e-01 4.328086662863754874e-01 1.489519436331931956e-01 8.381497886459606805e-01 8.438401715696286498e-02 1.506383635742724048e-01 7.044085592140372221e-01 1.663723086076324131e-01 4.326768147686724797e-01 2.312000759452158549e-01 2.780417401098574937e-01 4.651038145905640464e-01 3.081000180482870165e-01 5.090794485204251929e-01 4.279982007716128800e-01 9.879136917037782961e-01 7.858839759905600353e-02 6.703337103766289218e-01 2.170185635937550428e-01 5.192848375335047395e-01 1.094406233006489648e-01 8.629122058373160931e-01 9.052632985968273038e-01 8.721066639497077055e-01 1.379316679986231087e-01 9.796144660422428929e-01 7.424755165616797603e-01 9.468449325530364780e-01 5.938997687623904786e-01 2.575254907906938673e-01 1.092666929415951893e-01 9.583174534706873082e-02 6.143260406380510741e-01 8.926308306018521099e-01 2.453436478274635402e-01 7.084112122808075007e-01 1.869229259751790106e-01 3.876936343400170237e-01 3.258753061062096279e-01 2.741009159289715669e-01 3.181523210373341515e-01 2.836236342710261038e-01 4.410044543674394024e-01 1.951750725530254638e-02 5.242808251285856480e-01 5.077233822741598068e-01 9.981353109003060498e-01 2.961150428155175929e-01 2.093623998471874081e-01 1.490603035124780096e-01 3.986657417603373110e-01 1.403863066835037143e-01 5.883943712670514081e-02 3.967829386617232057e-01 2.693955750023553364e-01 7.341106726844023322e-01 7.738059035606368319e-01 9.199230443458384920e-01 6.627806424191269308e-01 8.760470302213063665e-02 1.550785261454243891e-01 3.515154316529051082e-01 2.528080484422083885e-01 6.037841294691852490e-01 6.741798260664129128e-01 8.436518016884041460e-01 3.389671462423224924e-01 7.770352156041057112e-01 5.388548906231327429e-02 9.389418742347208635e-01 4.278478273399097809e-01 9.649407951274807660e-01 9.311729616528734432e-01 2.485735354983432677e-01 1.693209107153615944e-01 5.200508493914057784e-02 8.701786622103302449e-01 8.700747589823247807e-01 6.219922519542757655e-01 5.045386806121117118e-01 6.932053936843356468e-01 2.963961038243948520e-01 5.501785580879280380e-01 3.525086509930230871e-01 4.626513742795507200e-01 4.068511441350108893e-02 9.039212967257792553e-02 3.936608369203198343e-01 7.472770109616698742e-01 4.928839205298258808e-01 9.627288906717189620e-01 6.439646300695890391e-01 3.630533944201269625e-01 9.513147327758396665e-01 8.560954764365943381e-01 5.795981914113307321e-01 3.927677933979056846e-02 4.329845634419193789e-01 3.625736252143114680e-01 2.126764553443460937e-02 5.188726219248371851e-01 8.482630230676410088e-01 8.102537971049629251e-01 2.893588638667576873e-01 5.011972431807297790e-01 6.120423320390883104e-01 4.229263109343981419e-01 6.731457680324169912e-01 4.418227225716538920e-01 3.097302207573408017e-01 8.394700629011390136e-01 1.953075002641069258e-01 8.666128756618863838e-01 7.209187122042731710e-01 1.530603024615173613e-01 8.356784035677704559e-01 5.301394737454950823e-01 5.513925844597756809e-01 5.997712967086240576e-01 7.473528794742230197e-01 4.850251841545517584e-01 9.007827775565828698e-01 1.479754000420834270e-01 6.330945913278055448e-01 5.428955559248306306e-01 7.618536773901248838e-01 6.145630505706128899e-01 1.170002824722476964e-01 6.797636469060334141e-01 8.707795469823307322e-01 2.489058214673918190e-01 3.708523328303831024e-01 6.119700143661979119e-01 2.823473483404604911e-01 6.809542786003796033e-01 8.106273129501790908e-01 1.077259204965576034e-01 5.266551878624681216e-01 5.399107066056308968e-01 1.909679333296442350e-01 8.457998124745631507e-01 3.223174855588308851e-01 7.035526281869597387e-01 2.182730746374168529e-01 1.226150903360330169e-01 2.423241523541097564e-01 9.859839369504461715e-01 3.516629556987239669e-01 8.456180067372676135e-02 8.092170978746704435e-02 9.047135929717128322e-01 4.252571836019085616e-01 6.342043340884871983e-01 4.715310531477420186e-01 6.149952697560191472e-01 6.073364331291366547e-01 7.098301093062876488e-01 4.834061924138892685e-01 8.220662433122113422e-01 8.968690544523573172e-01 1.417965841191477505e-01
2.012284147881919782e-01 5.204958423186221150e-01 9.536591488851328124e-01 1.988977352313776592e-01 4.140119858795383578e-01 8.805332336279394490e-01 4.571070534466514790e-01 9.016369384743383453e-02 6.633729661753274831e-01 1.375241123324735248e-01 9.097011287227474430e-01 1.216393093633406641e-01 2.171044298676719775e-01 1.632042890926121981e-01 3.966237422199095919e-01 4.636830273594314544e-01 9.218397655137896551e-01 3.904493199758101163e-01 5.653308585055208946e-01 9.296354620275939507e-01 7.205916763847940443e-01 4.542987676794080221e-01 4.820685131125899137e-01 6.144405585844103790e-01 9.871604847700266028e-02 2.018116851809356183e-01 6.419925566903318392e-01 1.393434701312387114e-01 7.054096296540425248e-01 1.665833449104123787e-01 6.832541313773806690e-01 5.757093392740354476e-01 7.744371180765659002e-01 2.043992815426114440e-01 5.600418094546472103e-01 1.193632621108783320e-01 1.549127725177621429e-01 4.501742811092949159e-01 7.276652263235736662e-01 6.020803886864364296e-01 4.592639992239430091e-01 3.133462831506120816e-01 4.399047011403429686e-01 9.526133208449271139e-01 3.655629860290102728e-01 9.112137669865407741e-01 5.966453024729423404e-01 9.757671355596833074e-01 2.745665138407273886e-01 7.539397638451579287e-01 6.646755256966452308e-03 7.449160419113184384e-01 9.415449882282231897e-01 5.972218642759217211e-01 1.809088382856587351e-01 8.007309141995674340e-01 8.773625948859826718e-01 7.437626036153528464e-01 4.230298817049936710e-01 5.482298638600777707e-01 8.036518902660867436e-01 5.208499932526196030e-01 2.840151077108887812e-03 9.134246483822567875e-01 7.786800123245476435e-01 7.646501786310758719e-01 3.378256557819421246e-01 1.840862575176805960e-01 4.983204783205201771e-01 9.397854573896378128e-01 8.934627133205923499e-01 7.293214338625531035e-02 1.488678951855757493e-01 4.353211577136719690e-01 5.336333535601531786e-01 1.777608880205326924e-01 7.413809344660878820e-01 2.328268478365805860e-01 5.943927620069702211e-01 2.902001844721053825e-01 3.480096464314145210e-01 6.723549769140246823e-03 5.288540317474186292e-01 3.335830209342958153e-01 6.044676825738386494e-01 4.786299286911505080e-01 7.004886096059930178e-01 8.697442136909991905e-01 4.828776192079400342e-01 1.544614895470669547e-01 4.556877523220155268e-01 5.072221835647287014e-01 8.692382578650851288e-01 2.307671897301499797e-01 7.362300709888255357e-01 5.438491923757124979e-01 1.047932315090911448e-01 1.849015563186712230e-01 2.486252845302905357e-01 5.101665563156233540e-01 6.635150021235416418e-01 1.992857112788515295e-02 4.265982060069530846e-01 8.602490270267073580e-01 2.960543019242433127e-01 5.486657976324663677e-01 1.425941834811632614e-01 2.036211386561274095e-01 6.418801683412389547e-02 9.859862770882912297e-01 9.322532529429936599e-01 1.333630554064967333e-01 3.833104997408802728e-01 7.183835612152267291e-01 8.946697491762984900e-01 6.837849616514634077e-01 5.910433158946981624e-02 5.777862256734620505e-01 6.578636132823544314e-01 1.438759491783344613e-01 3.153559553144466010e-01 9.666636168743980573e-02 2.362260337912195363e-01 2.331589707814072376e-01 8.467565745334558747e-01 1.148350455001697634e-01 9.179777836673075342e-01 9.018688187047203542e-01 8.405783189812949807e-01 1.419845698302593107e-01 2.339881848893490268e-01 1.788569673235507196e-01 7.521280601852089465e-01 3.107919547955184658e-02 1.630760756831652891e-01 5.888830526262592846e-01 2.890299145356729493e-01 7.830867100312957074e-01 2.425715360786735442e-01 6.964274298407123753e-01 2.516726381067222462e-01 7.079232257695006192e-01 9.191445494039149899e-01 1.957322558148176794e-01 8.172556602192366793e-01 5.480240211864412236e-01 3.682117359450178817e-01 5.518439399021684011e-01 6.371944987384579040e-01 1.496812618352092450e-01 4.893778281432966670e-01 7.850610250111452748e-01 9.264677358594959333e-01 5.319502955496034913e-01 9.508313470710949566e-02 7.634854426621516810e-01 4.910522483346975164e-01 9.697730630020563458e-01 7.711561453192641302e-01 8.028743177772892370e-01 7.152535674176861979e-01 7.087708144773330332e-01 6.344614051151816758e-01 4.199252679651561682e-01 1.690561697277268571e-01 5.292565170503646943e-01 4.420444060805551745e-01 4.741540590251506204e-01 7.195777129947114048e-01 9.866633660298167463e-01 5.772388844998677104e-02 2.380273637777380324e-01 6.669880792622573384e-02 1.282340954296713464e-01 2.079599368184182895e-01 2.210955141072824537e-01 8.171319411614379469e-01 2.442723162582461915e-01 1.438554623854929604e-01 5.671336792708113750e-01 1.291006423115462765e-01 4.341633998853829945e-01 7.841848099921986393e-01 4.219359100324309164e-01 9.182048773822011345e-01 6.840994215589266680e-01 9.489742574325131796e-01 1.403814053759329106e-01 2.463493203407564058e-01 8.645677184358435685e-01 3.395996482389491700e-01 6.669267507741750700e-01 2.184632723562287548e-01 8.228083888683422886e-01 5.071360593910663184e-01 9.280341509829962421e-01 8.694397327768741413e-01 6.295304093531990386e-01 8.935634174015335551e-01 7.045316241743564412e-01
6.006985107175891736e-01 4.086280292335414677e-01 8.538247009820101319e-01 4.321099166113245849e-01 6.032608113441692010e-01 3.332085500531182243e-01 5.687362076675391842e-01 8.911675474149395315e-01 9.277857923058290268e-01 2.110589646934767361e-01 4.040281130280571897e-01 4.119309149718806129e-01 4.742877021267802862e-01 2.410248819206042281e-01 6.170430036426033382e-03 1.917634986409438858e-01 7.585857223599568044e-02 8.602857299155051152e-01 3.618200366813458801e-01 5.865433272746182203e-01 8.177999583318290577e-01 9.855306978617046632e-01 1.497744983737172575e-01 4.134861556046511843e-01 8.678444310214759039e-01 3.915638260538447657e-01 3.561958822911757139e-01 5.401924105224138462e-01 1.095392354896844722e-01 4.146012038778554842e-01 2.259574445768161022e-01 1.820568682626081403e-01 9.272824467161947526e-01 3.125911755024378680e-01 8.446102086438646017e-01 8.364742916985881127e-01 4.608923731127534396e-02 8.415949315625979033e-01 4.954903870125176857e-01 7.630689724241714877e-01 2.502478299107024906e-01 8.681815773401349023e-01 4.844298735159344726e-01 7.134834350607131004e-01 6.764306222509396394e-01 2.356052854228618543e-01 8.490006140346972874e-01 2.447839243190160774e-01 4.848385242861578126e-01 2.972383840764851737e-01 1.734875918263278916e-01 9.522678502752035534e-02 2.270896956151523538e-01 9.963498984119387725e-01 3.016710467782178773e-01 7.044833959987220062e-01 7.915025060139694313e-01 6.025962422478624569e-01 2.459962286504002726e-02 4.801830076910407197e-01 6.631126100942571489e-01 9.901692881902701693e-02 6.059783190263390296e-02 1.656372140048684161e-01 6.960209085340118840e-02 5.607838675293308484e-02 7.452216194549825534e-01 8.151743467218433015e-01 9.577784281027802438e-01 5.098999811944862071e-01 5.061174499038515462e-01 9.690427453049361706e-01 1.452919275988764358e-01 2.166203253585095023e-01 8.054220135115159884e-01 8.311890643725771133e-01 3.187996878385268573e-01 8.843062887252187698e-01 6.996967248201926282e-01 2.045345164483243217e-01 9.810185221932732347e-02 5.056029162487095663e-01 9.618845478059797616e-01 1.598686800650694906e-02 3.465123535440496338e-01 5.808419252611932704e-01 9.086855959501735081e-01 6.139085534658804688e-01 3.537645743310863233e-01 6.629295835949078342e-02 8.284496321127746699e-01 7.962556665742970274e-01 2.129596859179675450e-01 2.016992544593533276e-01 4.732745682271113363e-01 7.383976609030613592e-01 5.808309182762944056e-01 6.407301489173230502e-01 4.920453094534066318e-01 8.530034932453327556e-01 6.228816420774985207e-02 7.790614940462169402e-01 3.395060789113987232e-01 8.099366296015775291e-01 9.968146481695527861e-02 8.614118906506708084e-01 3.096634269948927987e-02 2.185843636571317417e-01 9.199289454767671792e-01 9.329051172977169681e-01 5.276081790564479679e-02 9.327298142161269956e-01 1.462228735196889895e-01 1.005356700562014538e-01 6.846404625724175075e-01 2.287551929132769502e-03 7.017644145898661590e-01 7.327632836451942744e-01 4.538450554848719731e-01 4.743338815326045843e-01 3.002067797507856906e-01 5.482418217328298704e-01 6.661099051205703336e-01 3.180143423688041038e-01 7.708988927037445649e-01 6.963870134880114637e-01 9.329678353646979616e-01 1.665651264811248700e-01 1.150850346278287084e-01 2.786358094120607864e-01 4.088687059857810668e-01 9.615423779668604842e-01 4.514844801269284336e-01 3.274997185103611930e-02 6.404665283815969001e-01 4.701468343004379102e-01 7.082689048492387673e-01 9.352042157425191071e-01 4.501104079422917348e-01 1.310966936027003760e-01 9.233914658665148822e-01 2.041737436091403124e-01 2.849653512720589088e-01 4.583766468195882293e-02 6.212354899743338654e-01 1.806820701390995376e-01 3.019951176762314393e-01 8.277943108547347606e-03 7.953056940963404431e-01 5.189403615689184290e-01 3.549645777090103538e-01 7.422774495051565058e-01 8.286559802319131141e-01 2.823582497846941486e-01 8.532675101094643333e-01 3.201163280654598653e-01 7.561804813625222499e-01 8.743627171304682033e-01 7.901020891284852299e-01 4.327774578275979112e-01 5.332877516825322850e-01 4.014740509523404555e-01 6.615326561876814226e-01 3.044212479900283430e-01 8.227207574457637840e-01 6.804053366355687915e-01 2.424955815209745014e-01 1.722096129136612142e-01 2.717593580567756462e-01 9.530569031914698508e-01 5.469263685473022552e-01 6.506842724907885289e-01 3.912484677940186728e-01 8.873884749094157476e-01 3.480303274023274218e-01 3.397727866590898316e-01 2.587941043839091515e-01 9.852158049970815012e-01 6.592775031381952200e-01 6.143202446298432484e-01 1.786548408596267956e-01 4.825584385855340441e-01 5.724287696269543257e-01 4.342918199954975966e-01 2.169812287233064962e-01 5.933693490171733087e-01 4.896659559441086662e-01 8.302334673046292135e-01 8.984747604079081906e-01 5.705348134625969347e-01 5.254985616742706700e-01 2.381583264225333174e-01 2.423905255920254520e-01 8.044489862560468829e-01 1.109355621352300370e-01 8.385297424739752703e-01 7.573101286244765529e-01 7.571971616690879037e-01 9.944895885296916038e-01 7.418123087271426552e-01
4.313195343252622660e-01 3.461838286976226531e-02 5.190011969512233758e-01 2.678218405514835032e-01 7.594603643505413171e-01 2.882140336428125060e-01 1.526125662238599912e-01 3.431259372797182960e-01 5.587794855261658533e-01 6.558490799794888249e-01 3.012584929597087458e-01 4.008300938699095317e-01 9.437185086041746107e-01 5.000713018866735915e-01 4.367632492678853451e-01 2.984252266626593597e-01 6.500326879651961987e-01 4.659526247798316811e-01 1.355813482651598845e-01 6.884034297809296099e-01 3.096916242878665626e-01 7.740723828101138126e-01 1.183041148404732068e-01 4.655301890833004608e-01 7.558363489423719495e-01 9.114756088149741364e-01 2.833222176379952550e-01 2.204806078037181427e-01 7.939514604269219955e-01 3.316815237231115487e-01 4.087782124083498836e-01 9.833410656652140647e-01 6.653832008936909626e-01 3.525816516021129665e-01 7.794219703357340157e-01 7.649181054906750710e-02 5.789655641704111178e-01 7.059070962917697312e-01 7.711994278032052730e-01 6.805408147143021669e-01 7.285267121291362225e-01 3.709307825048170359e-01 7.582309059458517408e-01 8.878136158066065597e-01 1.226047207101613745e-01 4.648113238312745477e-02 4.329754959312444029e-01 4.493562325180291417e-01 9.849180712379222991e-01 9.804412330778130569e-01 4.373782554429120895e-01 8.470906018802049076e-02 4.947534351991413892e-01 3.532385928224548444e-01 8.443688388971750669e-01 1.014873322759723973e-01 1.048784730462888337e-01 8.298472459196876150e-01 2.870810909656758003e-01 2.025808356953026079e-01 4.693505565859571460e-01 3.658931205888799054e-01 4.719687044507323570e-01 4.247891145681362834e-01 2.990238846783093152e-01 3.113288959812077206e-01 2.945829742681519425e-01 1.169234885194510021e-01 5.617304578405059035e-01 9.704310276986064521e-01 5.994324083380212498e-01 9.225092905659031395e-01 7.020569352244975248e-01 9.051846929948014209e-01 2.155596535147833448e-01 8.239244855179485016e-01 7.504669235510608161e-02 7.481721143061947910e-02 1.429079016270556890e-01 4.231969942373140503e-01 7.499084311631336597e-01 9.570751488855963052e-01 9.772484133033769726e-01 5.581002448194635202e-01 1.512222492255999029e-01 3.056007263829307874e-02 2.716538255520988265e-01 8.790478871390465798e-01 9.987075881506988217e-01 2.864301422368485950e-01 6.053103420489258646e-03 3.827391724296728137e-01 6.824647296778660888e-01 4.003161356087435729e-01 1.207727440908251682e-01 4.192852320293682933e-01 8.547260876612535752e-01 4.729438143439235187e-02 7.399631432474497172e-01 4.616969672086962406e-01 2.452151373837532233e-01 9.215855716010166176e-01 5.148182829654025516e-01 9.300503228443187664e-01 6.778260879815177775e-01 3.460734186251473998e-01 9.407281396985323063e-03 2.804916094979897911e-01 8.471793664843586535e-01 7.451821029097707161e-01 8.233151957991132752e-01 3.322036337038647424e-01 6.529495044805762038e-01 8.599129183307187008e-01 2.506783513761671189e-01 4.205233830030334907e-01 1.016450403531546920e-01 3.868640984880010736e-01 9.068414295637550193e-01 1.149052626820479261e-01 5.693484207364929439e-02 9.087307865703622145e-01 4.687053176261374299e-01 8.947916656742956887e-01 6.960613705746651059e-01 6.743649595908226546e-01 8.089494298973709530e-01 6.305511060970966364e-01 2.466155361711647176e-01 9.878288121958181955e-01 9.486109846688975944e-01 9.279129056203822001e-01 5.451009400827881990e-01 1.896358094319097187e-01 8.823744518768427136e-01 1.588930378725263992e-01 6.399443330653162842e-01 3.017555101974569443e-01 1.859269947308860305e-01 8.035843054005807895e-01 9.725800083644531302e-02 5.729235466027162715e-01 4.112045572940528082e-01 4.942331780957565091e-02 6.877505012908282644e-01 5.721680803010742444e-01 6.730123542963705185e-01 6.534504324300632883e-01 2.684788864268392583e-01 3.865360774493623586e-01 6.483190870276298590e-01 6.397310678608619794e-01 9.136921520116425555e-01 9.786100123406820117e-01 4.791546781030197044e-01 2.748670583126776590e-01 6.135010866880915570e-01 5.662827359059756649e-01 5.181697844863007996e-01 7.052544027795017989e-01 4.352948884213863057e-01 9.228590793045363672e-01 1.623951454194665356e-01 4.698241527075665003e-01 7.504782255933714064e-01 7.684431241852447414e-01 3.104698009426798411e-02 7.869278149693403890e-01 8.475362104968248156e-01 7.074021896073477977e-01 1.800382427470794688e-01 3.760596535746031366e-01 1.332945562629048730e-01 7.331892540725486462e-01 4.809269781309641889e-01 8.010875331304612157e-02 9.330221537341317761e-01 9.992485855594990252e-02 9.953817497885746324e-01 2.547259567499484678e-01 8.923863539961683911e-01 3.374807743534811166e-01 5.655060270777554354e-01 4.143152708196544687e-01 6.797715505643330269e-01 3.100659202965702077e-01 4.041442509717718679e-01 5.123778939085785744e-01 2.883016380951177737e-01 4.274078714304819782e-01 3.079858099989523090e-01 8.461700091438137949e-01 5.451666770658075700e-01 6.113579662997747910e-02 8.197365423554200392e-01 3.019438850729748713e-01 9.786274554718037422e-01 6.659605842619567007e-01 2.764775514310917615e-01 4.832987024447561453e-01
